t_s,ax,ay,az,gx,gy,gz,led
0.000403,-0.6273,0.2490,9.8689,-0.0333,-0.0093,0.0370,0
0.004837,-0.6369,0.2011,9.8785,-0.0341,-0.0168,0.0381,0
0.008061,-0.6129,0.2059,9.8881,-0.0341,-0.0107,0.0392,0
0.011324,-0.5411,0.1963,9.9024,-0.0325,-0.0181,0.0394,0
0.015589,-0.6225,0.2634,9.8162,-0.0352,-0.0173,0.0437,0
0.019526,-0.6033,0.1867,9.8976,-0.0352,-0.0211,0.0413,0
0.022619,-0.5698,0.2921,9.9072,-0.0306,-0.0232,0.0386,0
0.025893,-0.5602,0.2394,9.8066,-0.0338,-0.0250,0.0368,0
0.028926,-0.5698,0.2538,9.8066,-0.0322,-0.0242,0.0408,0
0.032571,-0.5890,0.2586,9.8306,-0.0314,-0.0256,0.0352,0
0.036718,-0.5076,0.3017,9.8066,-0.0266,-0.0336,0.0368,0
0.040450,-0.5171,0.2969,9.8785,-0.0288,-0.0341,0.0309,0
0.044503,-0.5363,0.3065,9.8641,-0.0258,-0.0333,0.0280,0
0.049092,-0.5555,0.3112,9.8737,-0.0264,-0.0389,0.0282,0
0.052856,-0.5219,0.3352,9.8593,-0.0208,-0.0416,0.0240,0
0.056119,-0.5459,0.3208,9.9168,-0.0211,-0.0368,0.0253,0
0.059478,-0.5938,0.2969,9.8737,-0.0197,-0.0386,0.0216,0
0.062456,-0.5746,0.3304,9.9120,-0.0192,-0.0434,0.0208,0
0.066065,-0.5746,0.2921,9.9120,-0.0157,-0.0461,0.0240,0
0.069839,-0.5794,0.3112,9.9024,-0.0128,-0.0384,0.0229,0
0.073124,-0.5076,0.3017,9.9311,-0.0101,-0.0437,0.0224,0
0.076353,-0.5124,0.3112,9.9264,-0.0101,-0.0426,0.0176,0
0.080299,-0.5459,0.3400,9.9647,-0.0059,-0.0402,0.0229,0
0.084656,-0.6129,0.2586,9.9455,0.0000,-0.0448,0.0131,0
0.087819,-0.5794,0.3400,9.9359,0.0011,-0.0450,0.0149,0
0.091296,-0.6369,0.3017,9.9216,0.0011,-0.0496,0.0187,0
0.094300,-0.5076,0.2729,9.9551,0.0048,-0.0490,0.0091,0
0.097364,-0.6177,0.2107,9.9838,0.0011,-0.0485,0.0139,0
0.102379,-0.5938,0.2538,9.8737,0.0016,-0.0466,0.0157,0
0.105561,-0.6225,0.2346,9.8976,0.0056,-0.0586,0.0136,0
0.108650,-0.5890,0.2729,9.8881,0.0045,-0.0560,0.0123,0
0.112166,-0.6033,0.2155,9.8641,-0.0003,-0.0602,0.0152,0
0.117736,-0.5794,0.2155,9.9120,0.0093,-0.0640,0.0093,0
0.121062,-0.5794,0.2969,9.8928,0.0003,-0.0613,0.0123,0
0.124343,-0.6129,0.2107,9.8785,-0.0024,-0.0650,0.0101,0
0.127413,-0.5986,0.2059,9.8785,-0.0005,-0.0685,0.0139,0
0.130451,-0.6081,0.2634,9.8402,0.0069,-0.0698,0.0149,0
0.135569,-0.5650,0.2251,9.8641,0.0051,-0.0703,0.0101,0
0.138830,-0.6321,0.2059,9.8210,-0.0045,-0.0735,0.0061,0
0.142036,-0.5650,0.1676,9.8641,-0.0019,-0.0759,0.0056,0
0.146694,-0.5746,0.1245,9.7875,0.0024,-0.0762,0.0075,0
0.151731,-0.6225,0.1580,9.8450,-0.0021,-0.0695,0.0112,0
0.154878,-0.5746,0.2346,9.7971,-0.0021,-0.0735,0.0021,0
0.158136,-0.6033,0.1724,9.8306,-0.0037,-0.0754,0.0064,0
0.161191,-0.5650,0.1963,9.8545,0.0016,-0.0719,-0.0032,0
0.164394,-0.6081,0.1197,9.8066,0.0035,-0.0757,0.0024,0
0.168930,-0.5890,0.1820,9.8114,-0.0016,-0.0698,0.0013,0
0.172044,-0.6800,0.1484,9.8162,-0.0008,-0.0765,0.0008,0
0.175180,-0.5602,0.0814,9.8162,-0.0043,-0.0685,0.0029,0
0.178814,-0.5507,0.1724,9.8928,-0.0043,-0.0743,-0.0064,0
0.184587,-0.5650,0.1101,9.8402,-0.0013,-0.0711,0.0013,0
0.187848,-0.5507,0.1006,9.8833,-0.0008,-0.0725,0.0021,0
0.191148,-0.5794,0.1101,9.8641,-0.0037,-0.0743,-0.0056,0
0.194207,-0.6081,0.1053,9.8306,-0.0048,-0.0725,-0.0059,0
0.197269,-0.6129,0.1149,9.8354,-0.0077,-0.0701,-0.0045,0
0.202248,-0.5602,0.1484,9.8402,-0.0091,-0.0674,-0.0037,0
0.205479,-0.6273,0.0862,9.8881,-0.0112,-0.0711,-0.0115,0
0.208593,-0.6273,0.1820,9.8641,-0.0053,-0.0661,-0.0088,0
0.212087,-0.5842,0.1628,9.8689,-0.0056,-0.0616,-0.0115,0
0.217723,-0.6081,0.1197,9.8737,-0.0053,-0.0546,-0.0093,0
0.220964,-0.6416,0.1484,9.8593,-0.0037,-0.0613,-0.0048,0
0.224381,-0.6129,0.1341,9.8354,-0.0077,-0.0562,-0.0067,0
0.227375,-0.6895,0.1724,9.8402,-0.0072,-0.0549,-0.0067,0
0.230398,-0.6608,0.1915,9.8545,-0.0013,-0.0480,-0.0056,0
0.234539,-0.6560,0.1197,9.8833,-0.0019,-0.0512,-0.0035,0
0.237958,-0.6656,0.2394,9.8497,-0.0072,-0.0474,-0.0027,0
0.241210,-0.7039,0.2298,9.8066,-0.0072,-0.0485,-0.0016,0
0.244446,-0.6704,0.1772,9.7827,-0.0024,-0.0477,-0.0059,0
0.248905,-0.6416,0.1580,9.7971,-0.0048,-0.0421,0.0011,0
0.252650,-0.7230,0.2586,9.7540,-0.0037,-0.0402,0.0021,0
0.255872,-0.6656,0.1963,9.8450,-0.0088,-0.0280,0.0080,0
0.259123,-0.6608,0.1915,9.8210,-0.0021,-0.0370,0.0072,0
0.262167,-0.7135,0.2107,9.7923,-0.0040,-0.0314,0.0147,0
0.265978,-0.7230,0.2059,9.8354,-0.0061,-0.0218,0.0157,0
0.269646,-0.7326,0.2729,9.7923,-0.0016,-0.0208,0.0192,0
0.272932,-0.6991,0.2490,9.7779,-0.0008,-0.0213,0.0192,0
0.276167,-0.6033,0.2682,9.8210,0.0011,-0.0179,0.0187,0
0.279968,-0.6512,0.3735,9.8210,0.0045,-0.0187,0.0192,0
0.283997,-0.6608,0.3543,9.8354,0.0035,-0.0075,0.0213,0
0.287278,-0.5986,0.3208,9.8114,0.0061,-0.0075,0.0237,0
0.290683,-0.6416,0.3304,9.7827,0.0045,-0.0037,0.0168,0
0.293784,-0.6321,0.3926,9.8066,0.0088,-0.0048,0.0232,0
0.296829,-0.5938,0.3448,9.8258,0.0155,-0.0011,0.0173,0
0.302058,-0.6225,0.3639,9.7492,0.0160,0.0045,0.0141,0
0.305248,-0.5746,0.4118,9.7300,0.0163,0.0000,0.0181,0
0.308378,-0.5602,0.4405,9.7779,0.0205,0.0080,0.0173,0
0.311850,-0.6273,0.4310,9.6822,0.0213,0.0213,0.0104,0
0.317239,-0.5650,0.4405,9.7779,0.0226,0.0232,0.0109,0
0.320510,-0.5698,0.3448,9.7492,0.0208,0.0242,0.0104,0
0.323854,-0.6273,0.3591,9.7348,0.0298,0.0301,0.0147,0
0.326918,-0.6033,0.3208,9.7636,0.0250,0.0338,0.0107,0
0.329841,-0.5746,0.3448,9.7444,0.0314,0.0405,0.0109,0
0.334112,-0.5507,0.3687,9.7588,0.0298,0.0450,0.0120,0
0.337516,-0.5746,0.3208,9.7348,0.0320,0.0490,0.0083,0
0.340692,-0.5459,0.3208,9.7971,0.0285,0.0538,0.0080,0
0.344111,-0.5746,0.2586,9.7348,0.0344,0.0533,0.0059,0
0.348671,-0.5028,0.2969,9.7013,0.0280,0.0589,0.0069,0
0.352468,-0.5602,0.2634,9.7396,0.0368,0.0541,0.0011,0
0.355712,-0.5698,0.2251,9.7779,0.0277,0.0578,0.0021,0
0.359020,-0.5363,0.2203,9.7061,0.0282,0.0573,0.0011,0
0.361991,-0.5938,0.2729,9.7157,0.0269,0.0592,0.0016,0
0.365747,-0.6416,0.2634,9.7540,0.0293,0.0520,-0.0024,0
0.370382,-0.6752,0.2155,9.7157,0.0266,0.0533,0.0013,0
0.373550,-0.6081,0.2538,9.7348,0.0232,0.0522,0.0003,0
0.376730,-0.6943,0.2777,9.7061,0.0248,0.0546,0.0029,0
0.381877,-0.6656,0.2059,9.8019,0.0165,0.0538,0.0043,0
0.385646,-0.6943,0.2011,9.7636,0.0144,0.0565,0.0115,0
0.388944,-0.7518,0.1820,9.7205,0.0085,0.0624,0.0101,0
0.392152,-0.7135,0.1676,9.6965,0.0053,0.0666,0.0128,0
0.395551,-0.6608,0.1867,9.7779,0.0080,0.0640,0.0200,0
0.399615,-0.6704,0.1293,9.7252,-0.0013,0.0727,0.0211,0
0.404124,-0.6752,0.1580,9.7492,-0.0029,0.0743,0.0258,0
0.407259,-0.6416,0.1006,9.7540,-0.0040,0.0690,0.0290,0
0.410274,-0.6416,0.0910,9.7923,-0.0104,0.0693,0.0280,0
0.414404,-0.6321,0.1053,9.7252,-0.0165,0.0703,0.0338,0
0.419311,-0.6177,0.0862,9.7109,-0.0197,0.0703,0.0298,0
0.422434,-0.6369,0.1053,9.7348,-0.0221,0.0693,0.0288,0
0.425708,-0.5698,0.1245,9.7157,-0.0229,0.0640,0.0328,0
0.428679,-0.5124,0.1006,9.6822,-0.0261,0.0616,0.0320,0
0.431927,-0.5650,0.0670,9.6486,-0.0330,0.0584,0.0298,0
0.436526,-0.5219,0.1437,9.6534,-0.0357,0.0490,0.0266,0
0.439737,-0.5842,0.1197,9.6151,-0.0322,0.0509,0.0269,0
0.442956,-0.4836,0.1101,9.6534,-0.0344,0.0445,0.0218,0
0.446750,-0.5650,0.1341,9.5768,-0.0378,0.0437,0.0258,0
0.450959,-0.5507,0.1245,9.6582,-0.0410,0.0381,0.0224,0
0.454143,-0.6081,0.0958,9.5912,-0.0405,0.0365,0.0205,0
0.457453,-0.5411,0.1389,9.6678,-0.0397,0.0338,0.0253,0
0.460534,-0.5938,0.1963,9.6295,-0.0424,0.0346,0.0218,0
0.463536,-0.5555,0.0910,9.6822,-0.0370,0.0232,0.0163,0
0.468851,-0.5986,0.1867,9.7109,-0.0437,0.0266,0.0226,0
0.471996,-0.5411,0.1149,9.7109,-0.0416,0.0192,0.0189,0
0.475126,-0.5028,0.1532,9.7109,-0.0346,0.0184,0.0152,0
0.478557,-0.5746,0.0958,9.7588,-0.0349,0.0109,0.0173,0
0.484365,-0.5986,0.1437,9.8354,-0.0336,0.0080,0.0221,0
0.487630,-0.5267,0.1580,9.8497,-0.0293,0.0072,0.0165,0
0.491042,-0.5602,0.1724,9.8689,-0.0341,-0.0013,0.0184,0
0.494055,-0.5650,0.2011,9.9072,-0.0306,-0.0016,0.0141,0
0.497104,-0.4597,0.1772,9.8976,-0.0293,-0.0075,0.0149,0
0.502093,-0.5219,0.1437,9.9503,-0.0272,-0.0037,0.0112,0
0.505397,-0.5650,0.1628,9.9455,-0.0293,-0.0064,0.0125,0
0.508516,-0.5124,0.2251,9.8976,-0.0269,-0.0077,0.0107,0
0.512989,-0.5555,0.2011,9.9024,-0.0234,-0.0136,0.0067,0
0.517157,-0.5363,0.1867,9.9072,-0.0232,-0.0155,0.0064,0
0.520430,-0.5219,0.2203,9.8976,-0.0232,-0.0109,0.0027,0
0.523847,-0.5459,0.2251,9.8785,-0.0226,-0.0133,0.0019,0
0.526903,-0.5507,0.2538,9.8833,-0.0272,-0.0147,0.0029,0
0.530025,-0.5842,0.1867,9.8785,-0.0280,-0.0152,0.0016,0
0.535221,-0.5028,0.2729,9.8450,-0.0181,-0.0165,0.0005,0
0.538488,-0.6129,0.2251,9.8641,-0.0237,-0.0128,-0.0024,0
0.541705,-0.5507,0.2298,9.8354,-0.0171,-0.0120,0.0005,0
0.545079,-0.6129,0.2346,9.8114,-0.0197,-0.0176,-0.0037,0
0.550678,-0.5698,0.2634,9.8306,-0.0168,-0.0133,-0.0077,0
0.554256,-0.5219,0.2729,9.7588,-0.0203,-0.0131,-0.0104,0
0.557680,-0.5602,0.2538,9.8402,-0.0155,-0.0181,-0.0147,0
0.560661,-0.5698,0.2490,9.7683,-0.0128,-0.0179,-0.0115,0
0.563715,-0.5219,0.2682,9.7827,-0.0176,-0.0192,-0.0120,0
0.568433,-0.4884,0.2634,9.8641,-0.0051,-0.0189,-0.0128,0
0.571585,-0.5219,0.2155,9.8545,-0.0075,-0.0197,-0.0168,0
0.574757,-0.5507,0.2634,9.8066,-0.0077,-0.0200,-0.0200,0
0.578278,-0.6033,0.2394,9.7971,-0.0029,-0.0200,-0.0208,0
0.583747,-0.5076,0.1772,9.8210,-0.0035,-0.0133,-0.0269,0
0.587107,-0.5315,0.2011,9.8354,-0.0035,-0.0141,-0.0256,0
0.590440,-0.5411,0.2107,9.8114,0.0032,-0.0205,-0.0229,0
0.593460,-0.4836,0.1532,9.8545,-0.0003,-0.0218,-0.0229,0
0.596447,-0.6225,0.1437,9.8306,-0.0011,-0.0181,-0.0285,0
0.600599,-0.5507,0.1341,9.7923,0.0043,-0.0144,-0.0304,0
0.603965,-0.5267,0.1437,9.8450,0.0005,-0.0107,-0.0336,0
0.607132,-0.5315,0.1341,9.8162,-0.0048,-0.0112,-0.0325,0
0.610451,-0.6560,0.1149,9.9072,-0.0064,-0.0131,-0.0322,0
0.614772,-0.5938,0.0670,9.8545,-0.0064,-0.0059,-0.0354,0
0.618746,-0.6033,0.1341,9.8019,-0.0048,-0.0048,-0.0341,0
0.622015,-0.6512,0.1484,9.8737,-0.0109,-0.0048,-0.0312,0
0.625280,-0.6560,0.1293,9.8928,-0.0117,0.0005,-0.0285,0
0.628284,-0.6416,0.0862,9.8114,-0.0083,0.0024,-0.0282,0
0.632108,-0.6369,0.0910,9.9311,-0.0109,0.0032,-0.0285,0
0.635869,-0.6464,0.0766,9.8785,-0.0083,0.0037,-0.0211,0
0.639117,-0.6512,0.1245,9.8976,-0.0147,0.0024,-0.0218,0
0.642235,-0.7183,0.1389,9.9024,-0.0083,0.0077,-0.0184,0
0.646337,-0.6560,0.1867,9.8833,-0.0128,0.0072,-0.0131,0
0.650535,-0.7566,0.1772,9.9072,-0.0128,0.0125,-0.0099,0
0.653807,-0.6560,0.1915,9.8928,-0.0133,0.0125,-0.0099,0
0.657046,-0.6943,0.2155,9.8641,-0.0128,0.0096,-0.0075,0
0.660061,-0.6656,0.1915,9.9264,-0.0093,0.0139,-0.0091,0
0.663126,-0.6800,0.1820,9.9551,-0.0091,0.0160,-0.0016,0
0.667466,-0.6752,0.1772,9.9072,-0.0056,0.0163,-0.0021,0
0.670853,-0.6895,0.2155,9.9359,-0.0053,0.0216,0.0035,0
0.674144,-0.6800,0.2490,9.8545,-0.0083,0.0234,0.0053,0
0.677351,-0.6512,0.1963,9.8545,-0.0024,0.0293,0.0040,0
0.681774,-0.6752,0.2059,9.8641,-0.0024,0.0344,0.0091,0
0.685631,-0.6416,0.2011,9.7923,-0.0067,0.0370,0.0083,0
0.688946,-0.6464,0.2298,9.8354,-0.0069,0.0453,0.0123,0
0.692298,-0.6177,0.1389,9.8354,0.0003,0.0474,0.0144,0
0.695260,-0.6847,0.1437,9.8976,-0.0035,0.0610,0.0125,0
0.700385,-0.6369,0.1867,9.8258,-0.0027,0.0576,0.0216,0
0.703738,-0.6512,0.1676,9.8641,0.0056,0.0640,0.0200,0
0.706933,-0.6656,0.1915,9.8497,0.0008,0.0701,0.0221,0
0.710286,-0.6273,0.1437,9.8497,0.0040,0.0746,0.0192,0
0.714689,-0.6656,0.1484,9.8833,0.0024,0.0794,0.0258,0
0.718623,-0.6464,0.1293,9.8689,-0.0040,0.0842,0.0280,0
0.721881,-0.6177,0.1820,9.8641,0.0072,0.0807,0.0264,0
0.725087,-0.6512,0.1724,9.8258,0.0064,0.0842,0.0298,0
0.728042,-0.6800,0.1293,9.8066,0.0088,0.0885,0.0312,0
0.731967,-0.6464,0.1628,9.8785,0.0136,0.0831,0.0381,0
0.740412,-0.6081,0.1532,9.8737,0.0141,0.0898,0.0370,0
0.743740,-0.6177,0.1772,9.8928,0.0197,0.0919,0.0360,0
0.748034,-0.5507,0.2490,9.9216,0.0163,0.0909,0.0360,0
0.751997,-0.5938,0.2538,9.8976,0.0163,0.0965,0.0360,0
0.755222,-0.5746,0.2442,9.9072,0.0213,0.0994,0.0312,0
0.759111,-0.5698,0.2777,9.9216,0.0234,0.0962,0.0360,0
0.762168,-0.6177,0.2107,9.9934,0.0258,0.0930,0.0349,0
0.766708,-0.5842,0.2682,9.9599,0.0314,0.0949,0.0344,0
0.770074,-0.5890,0.2346,9.9359,0.0282,0.0954,0.0362,0
0.773148,-0.6273,0.2586,10.0269,0.0330,0.0954,0.0365,0
0.776476,-0.5938,0.2586,9.9455,0.0320,0.0965,0.0368,0
0.781327,-0.5842,0.2682,10.0126,0.0389,0.0949,0.0400,0
0.784960,-0.5890,0.2586,9.9934,0.0408,0.0970,0.0408,0
0.787986,-0.6081,0.2729,9.9551,0.0448,0.0975,0.0376,0
0.791021,-0.6177,0.2298,9.9982,0.0485,0.0949,0.0352,0
0.794483,-0.5650,0.2298,9.9264,0.0472,0.0925,0.0394,0
0.798250,-0.5267,0.3112,9.9599,0.0568,0.0911,0.0402,0
0.802853,-0.5507,0.2346,9.9311,0.0536,0.0954,0.0386,0
0.805964,-0.5507,0.2394,9.8497,0.0522,0.0949,0.0362,0
0.809048,-0.5746,0.2298,9.8785,0.0517,0.0882,0.0322,0
0.812891,-0.5650,0.1772,9.8785,0.0538,0.0871,0.0330,0
0.817061,-0.5315,0.2107,9.8593,0.0557,0.0871,0.0336,0
0.820339,-0.5698,0.1245,9.8402,0.0517,0.0829,0.0344,0
0.823651,-0.5315,0.1437,9.8737,0.0504,0.0855,0.0325,0
0.826741,-0.5363,0.1101,9.8881,0.0568,0.0783,0.0304,0
0.829810,-0.5555,0.0862,9.8019,0.0490,0.0815,0.0304,0
0.833948,-0.5171,0.1149,9.8306,0.0517,0.0757,0.0296,0
0.837303,-0.5411,0.0479,9.7061,0.0496,0.0759,0.0309,0
0.840482,-0.5315,0.0144,9.7252,0.0469,0.0650,0.0306,0
0.843664,-0.5028,0.1101,9.7061,0.0453,0.0663,0.0277,0
0.849572,-0.4884,0.0766,9.6630,0.0456,0.0592,0.0288,0
0.853409,-0.4645,0.0383,9.6391,0.0416,0.0570,0.0298,0
0.856919,-0.5315,0.0766,9.6199,0.0386,0.0544,0.0234,0
0.860131,-0.5363,0.1341,9.6917,0.0442,0.0522,0.0266,0
0.863291,-0.5507,0.0622,9.6678,0.0450,0.0496,0.0237,0
0.867785,-0.5794,0.1245,9.6438,0.0424,0.0480,0.0248,0
0.871548,-0.5555,0.0718,9.6869,0.0413,0.0384,0.0312,0
0.874970,-0.5555,0.1197,9.7157,0.0360,0.0373,0.0248,0
0.878387,-0.5842,0.1628,9.7300,0.0336,0.0328,0.0298,0
0.883402,-0.6129,0.1484,9.7875,0.0317,0.0266,0.0290,0
0.887358,-0.5794,0.1628,9.7827,0.0328,0.0258,0.0352,0
0.890829,-0.5986,0.1101,9.8258,0.0333,0.0211,0.0325,0
0.894027,-0.5698,0.1437,9.8258,0.0258,0.0173,0.0309,0
0.897116,-0.5507,0.1820,9.9072,0.0274,0.0104,0.0317,0
0.901783,-0.5938,0.1341,9.9216,0.0173,0.0037,0.0365,0
0.905533,-0.4980,0.1820,9.8641,0.0218,-0.0019,0.0344,0
0.908848,-0.6273,0.1580,9.9072,0.0234,-0.0048,0.0338,0
0.912545,-0.4980,0.2346,9.8881,0.0203,-0.0173,0.0354,0
0.918549,-0.5411,0.1963,9.9264,0.0205,-0.0179,0.0362,0
0.922011,-0.5315,0.1676,9.9168,0.0205,-0.0264,0.0365,0
0.925459,-0.5459,0.1341,9.9407,0.0152,-0.0293,0.0357,0
0.928572,-0.5698,0.2203,9.9216,0.0093,-0.0320,0.0360,0
0.931838,-0.5555,0.1149,9.9647,0.0203,-0.0397,0.0314,0
0.936735,-0.5076,0.1628,9.9359,0.0125,-0.0472,0.0317,0
0.940450,-0.5124,0.1532,9.8593,0.0165,-0.0504,0.0290,0
0.943764,-0.4741,0.2251,9.9455,0.0075,-0.0496,0.0325,0
0.947544,-0.5315,0.1532,9.9311,0.0107,-0.0565,0.0309,0
0.953264,-0.5363,0.1532,9.9120,0.0147,-0.0648,0.0277,0
0.956854,-0.4836,0.1628,9.8928,0.0131,-0.0634,0.0266,0
0.960311,-0.5459,0.1963,9.9742,0.0136,-0.0714,0.0184,0
0.964721,-0.4932,0.2634,9.9407,0.0173,-0.0778,0.0179,0
0.969860,-0.5602,0.1820,9.9311,0.0173,-0.0837,0.0139,0
0.974159,-0.5267,0.2634,9.9120,0.0176,-0.0882,0.0069,0
0.977847,-0.5363,0.2586,9.9551,0.0189,-0.0885,0.0069,0
0.983399,-0.5315,0.2538,9.9407,0.0197,-0.0954,0.0077,0
0.987624,-0.5650,0.3400,9.9455,0.0224,-0.1026,0.0091,0
0.991258,-0.5842,0.2873,9.9503,0.0274,-0.1002,0.0080,0
0.994518,-0.6081,0.3065,9.9216,0.0304,-0.1026,0.0051,0
0.997810,-0.5938,0.2969,9.9072,0.0269,-0.1029,0.0088,0
1.002621,-0.6464,0.3304,9.9024,0.0248,-0.1066,0.0045,0
1.006797,-0.6225,0.3256,9.9024,0.0285,-0.1114,0.0101,0
1.010287,-0.5938,0.3496,9.9072,0.0304,-0.1074,0.0075,0
1.015490,-0.6560,0.3208,9.9216,0.0253,-0.1066,0.0112,0
1.019693,-0.6560,0.2921,9.8737,0.0296,-0.1037,0.0160,0
1.023015,-0.6177,0.3304,9.8689,0.0312,-0.0999,0.0136,0
1.026281,-0.6752,0.3065,9.8689,0.0298,-0.1055,0.0181,0
1.030617,-0.5986,0.2682,9.8785,0.0298,-0.0999,0.0160,0
1.036032,-0.6129,0.3017,9.8354,0.0264,-0.0981,0.0152,0
1.040279,-0.6273,0.2538,9.8737,0.0261,-0.0959,0.0144,0
1.044230,-0.6129,0.2346,9.8162,0.0240,-0.0906,0.0181,0
1.050090,-0.5842,0.1772,9.8210,0.0258,-0.0861,0.0112,0
1.053887,-0.5842,0.2155,9.7779,0.0261,-0.0853,0.0088,0
1.057473,-0.6177,0.1772,9.7875,0.0226,-0.0775,0.0093,0
1.060617,-0.5602,0.1915,9.7636,0.0248,-0.0727,0.0115,0
1.063841,-0.6273,0.1867,9.7396,0.0216,-0.0722,0.0104,0
1.068969,-0.6177,0.1628,9.7779,0.0232,-0.0677,0.0077,0
1.072794,-0.6081,0.2011,9.7540,0.0224,-0.0640,0.0048,0
1.076081,-0.6464,0.1197,9.7683,0.0189,-0.0536,0.0064,0
1.079983,-0.6608,0.1820,9.7252,0.0184,-0.0501,0.0064,0
1.085709,-0.5842,0.1628,9.7252,0.0245,-0.0445,0.0075,0
1.088945,-0.6321,0.1484,9.7205,0.0208,-0.0400,0.0093,0
1.092133,-0.5890,0.2155,9.7205,0.0261,-0.0381,0.0067,0
1.095541,-0.6704,0.2346,9.6822,0.0184,-0.0440,0.0104,0
1.100667,-0.6416,0.2251,9.6822,0.0224,-0.0312,0.0075,0
1.104574,-0.5986,0.3017,9.6391,0.0160,-0.0277,0.0125,0
1.108037,-0.6033,0.3065,9.6822,0.0120,-0.0280,0.0077,0
1.111904,-0.6464,0.3017,9.6343,0.0195,-0.0266,0.0115,0
1.118109,-0.6656,0.2777,9.6199,0.0125,-0.0195,0.0115,0
1.121552,-0.6129,0.2825,9.6630,0.0149,-0.0237,0.0107,0
1.125105,-0.6560,0.3256,9.5912,0.0069,-0.0179,0.0117,0
1.128269,-0.6464,0.3352,9.6343,0.0099,-0.0157,0.0096,0
1.131579,-0.6416,0.2969,9.6869,0.0093,-0.0144,0.0109,0
1.136406,-0.6416,0.2107,9.6343,0.0045,-0.0099,0.0115,0
1.140095,-0.6033,0.2969,9.5864,0.0053,-0.0077,0.0133,0
1.143557,-0.7183,0.2969,9.6917,0.0045,-0.0088,0.0141,0
1.149688,-0.5746,0.2873,9.6678,0.0000,0.0064,0.0157,0
1.153597,-0.6847,0.2825,9.7157,-0.0019,0.0067,0.0192,0
1.156964,-0.6512,0.2011,9.7252,0.0035,0.0083,0.0112,0
1.160163,-0.6560,0.1724,9.7444,0.0008,0.0131,0.0160,0
1.163343,-0.6943,0.1580,9.7923,-0.0016,0.0192,0.0155,0
1.168960,-0.6416,0.2155,9.7588,0.0008,0.0240,0.0218,0
1.172890,-0.6560,0.1963,9.7492,-0.0056,0.0296,0.0208,0
1.176383,-0.6177,0.1676,9.8114,-0.0019,0.0330,0.0226,0
1.181350,-0.6369,0.2155,9.7827,-0.0091,0.0394,0.0229,0
1.185619,-0.6225,0.1245,9.7683,-0.0101,0.0429,0.0245,0
1.189007,-0.5794,0.2011,9.7971,-0.0117,0.0461,0.0203,0
1.192485,-0.5746,0.1867,9.7731,-0.0125,0.0528,0.0237,0
1.195584,-0.6225,0.1437,9.7636,-0.0117,0.0525,0.0200,0
1.198987,-0.5890,0.1532,9.7683,-0.0163,0.0546,0.0213,0
1.203824,-0.5698,0.2251,9.7779,-0.0200,0.0536,0.0205,0
1.207564,-0.5794,0.2298,9.7396,-0.0181,0.0560,0.0176,0
1.210836,-0.6560,0.2059,9.7779,-0.0211,0.0549,0.0171,0
1.216287,-0.5842,0.2586,9.7971,-0.0179,0.0514,0.0165,0
1.220045,-0.5315,0.2873,9.7636,-0.0213,0.0618,0.0179,0
1.223181,-0.5938,0.3208,9.8019,-0.0109,0.0605,0.0152,0
1.226311,-0.5267,0.3112,9.8210,-0.0163,0.0509,0.0131,0
1.229636,-0.5746,0.3735,9.8497,-0.0069,0.0552,0.0139,0
1.235637,-0.5650,0.3543,9.9838,-0.0085,0.0613,0.0136,0
1.239438,-0.5124,0.3400,9.9742,-0.0035,0.0597,0.0104,0
1.242771,-0.5315,0.4310,9.9934,0.0024,0.0629,0.0096,0
1.247518,-0.4788,0.3639,10.0365,0.0112,0.0552,-0.0003,0
1.251747,-0.4549,0.3496,10.0126,0.0187,0.0584,0.0021,0
1.255352,-0.4501,0.3783,10.0987,0.0211,0.0629,0.0013,0
1.258726,-0.4788,0.3783,10.0796,0.0266,0.0621,-0.0067,0
1.261855,-0.5171,0.3352,10.1706,0.0288,0.0613,-0.0029,0
1.265224,-0.5411,0.3639,10.1418,0.0408,0.0586,-0.0085,0
1.270200,-0.5698,0.3065,10.1610,0.0493,0.0584,-0.0067,0
1.274429,-0.5363,0.3831,10.1179,0.0506,0.0549,-0.0128,0
1.277935,-0.5890,0.3112,10.1035,0.0554,0.0610,-0.0115,0
1.283086,-0.6033,0.2825,10.0940,0.0549,0.0544,-0.0112,0
1.287041,-0.5938,0.3112,9.9886,0.0687,0.0576,-0.0059,0
1.290570,-0.5555,0.3783,9.9503,0.0632,0.0589,-0.0056,0
1.293825,-0.6129,0.2921,9.9407,0.0687,0.0560,-0.0005,0
1.296928,-0.6177,0.2346,9.8881,0.0671,0.0485,-0.0075,0
1.301676,-0.6369,0.3065,9.8881,0.0698,0.0469,-0.0069,0
1.305471,-0.6177,0.3304,9.8306,0.0709,0.0506,-0.0040,0
1.308797,-0.5890,0.2969,9.8450,0.0794,0.0448,-0.0024,0
1.312541,-0.5363,0.3017,9.7300,0.0791,0.0376,-0.0005,0
1.318512,-0.5938,0.2442,9.6726,0.0794,0.0282,-0.0035,0
1.321954,-0.4932,0.2394,9.7252,0.0775,0.0218,-0.0011,0
1.325432,-0.5363,0.2586,9.7396,0.0831,0.0181,-0.0024,0
1.328555,-0.5507,0.3400,9.6822,0.0807,0.0080,-0.0024,0
1.331899,-0.5890,0.2921,9.6965,0.0829,0.0051,-0.0027,0
1.336849,-0.4741,0.2634,9.6391,0.0773,-0.0048,-0.0045,0
1.340538,-0.5267,0.2682,9.7157,0.0839,-0.0045,-0.0040,0
1.343813,-0.5746,0.3017,9.7444,0.0829,-0.0048,-0.0040,0
1.349136,-0.5315,0.3160,9.7444,0.0847,-0.0107,-0.0011,0
1.353317,-0.6273,0.2777,9.8066,0.0831,-0.0099,0.0000,0
1.356712,-0.6847,0.3256,9.7300,0.0845,-0.0125,-0.0019,0
1.359980,-0.5938,0.3112,9.7396,0.0831,-0.0048,0.0056,0
1.363604,-0.6704,0.3112,9.7492,0.0845,-0.0155,0.0099,0
1.369011,-0.6560,0.3304,9.7157,0.0826,-0.0197,0.0072,0
1.373426,-0.7087,0.3208,9.7396,0.0813,-0.0171,0.0115,0
1.377599,-0.6273,0.3687,9.7061,0.0775,-0.0171,0.0165,0
1.383223,-0.5698,0.4070,9.6726,0.0775,-0.0211,0.0155,0
1.387420,-0.5746,0.3974,9.7205,0.0706,-0.0272,0.0157,0
1.390977,-0.5938,0.3543,9.7300,0.0719,-0.0216,0.0144,0
1.394212,-0.5842,0.3926,9.7971,0.0613,-0.0256,0.0168,0
1.397495,-0.6656,0.3735,9.7492,0.0592,-0.0272,0.0266,0
1.403444,-0.6225,0.3352,9.7636,0.0570,-0.0274,0.0157,0
1.407441,-0.6369,0.3639,9.7444,0.0514,-0.0317,0.0195,0
1.410971,-0.5650,0.3783,9.7731,0.0480,-0.0304,0.0242,0
1.415794,-0.6225,0.4022,9.7061,0.0469,-0.0344,0.0216,0
1.420038,-0.6129,0.3256,9.6917,0.0408,-0.0333,0.0274,0
1.423374,-0.6416,0.3400,9.6486,0.0365,-0.0386,0.0258,0
1.426606,-0.6225,0.3352,9.6630,0.0378,-0.0333,0.0282,0
1.430842,-0.6560,0.3065,9.6582,0.0333,-0.0362,0.0266,0
1.436243,-0.6225,0.3304,9.6103,0.0328,-0.0306,0.0333,0
1.440470,-0.6512,0.3496,9.6678,0.0274,-0.0301,0.0272,0
1.444347,-0.6991,0.3831,9.7013,0.0218,-0.0338,0.0298,0
1.449466,-0.6033,0.3543,9.7540,0.0234,-0.0272,0.0344,0
1.453378,-0.5842,0.3400,9.7827,0.0147,-0.0280,0.0360,0
1.456960,-0.6560,0.3591,9.7588,0.0261,-0.0240,0.0336,0
1.460254,-0.6847,0.3687,9.8593,0.0176,-0.0224,0.0346,0
1.463397,-0.6560,0.4357,9.7923,0.0155,-0.0192,0.0336,0
1.468078,-0.6081,0.3879,9.9407,0.0144,-0.0152,0.0416,0
1.471879,-0.6512,0.3974,9.8976,0.0200,-0.0112,0.0368,0
1.475458,-0.6656,0.4262,9.9120,0.0091,-0.0043,0.0368,0
1.479197,-0.5986,0.4788,9.9503,0.0181,-0.0043,0.0381,0
1.484902,-0.5507,0.4357,9.9359,0.0141,-0.0013,0.0317,0
1.488061,-0.5698,0.4597,9.9742,0.0131,0.0011,0.0370,0
1.491300,-0.5698,0.4501,9.9790,0.0131,0.0037,0.0322,0
1.494718,-0.5459,0.4405,10.0030,0.0149,0.0072,0.0328,0
1.499695,-0.4788,0.4357,10.0269,0.0155,0.0061,0.0290,0
1.503670,-0.5363,0.4693,9.9742,0.0192,0.0115,0.0261,0
1.507075,-0.5602,0.5411,9.9503,0.0173,0.0160,0.0285,0
1.510976,-0.6129,0.4693,9.9599,0.0141,0.0157,0.0237,0
1.516110,-0.5650,0.4453,9.9311,0.0171,0.0205,0.0157,0
1.520087,-0.5124,0.4741,9.8785,0.0083,0.0187,0.0205,0
1.523548,-0.5459,0.4310,9.8402,0.0139,0.0189,0.0200,0
1.526715,-0.5746,0.4405,9.8545,0.0104,0.0250,0.0200,0
1.529857,-0.6273,0.3926,9.8593,0.0099,0.0211,0.0192,0
1.535322,-0.6081,0.4453,9.7731,0.0051,0.0274,0.0224,0
1.539073,-0.6560,0.4310,9.8162,0.0043,0.0317,0.0232,0
1.542406,-0.5507,0.3831,9.7731,0.0048,0.0314,0.0197,0
1.546325,-0.6847,0.4070,9.7396,0.0000,0.0312,0.0232,0
1.552025,-0.5890,0.4262,9.7636,-0.0032,0.0314,0.0261,0
1.555242,-0.5650,0.3831,9.6774,0.0032,0.0296,0.0261,0
1.558462,-0.5602,0.3735,9.7252,-0.0027,0.0346,0.0211,0
1.561758,-0.5124,0.3926,9.7492,0.0035,0.0325,0.0205,0
1.566836,-0.5890,0.4070,9.6582,-0.0016,0.0317,0.0203,0
1.570681,-0.5746,0.3783,9.6247,0.0013,0.0346,0.0211,0
1.574293,-0.5411,0.4549,9.7444,-0.0043,0.0250,0.0189,0
1.578729,-0.5794,0.3926,9.7205,-0.0013,0.0285,0.0112,0
1.584988,-0.4932,0.4693,9.7157,-0.0005,0.0266,0.0131,0
1.588617,-0.5459,0.3879,9.7109,0.0053,0.0298,0.0131,0
1.591892,-0.5028,0.3831,9.7636,0.0077,0.0240,0.0075,0
1.594970,-0.4980,0.4214,9.7061,0.0035,0.0338,0.0059,0
1.598419,-0.5219,0.3400,9.8210,0.0064,0.0322,0.0029,0
1.603465,-0.5219,0.3639,9.8162,0.0061,0.0304,0.0024,0
1.607351,-0.5602,0.3400,9.7875,0.0077,0.0280,0.0005,0
1.610821,-0.5171,0.3591,9.8162,0.0005,0.0312,-0.0043,0
1.615278,-0.5746,0.3543,9.7731,0.0075,0.0213,-0.0099,0
1.619129,-0.5411,0.2442,9.7731,0.0037,0.0264,-0.0080,0
1.622311,-0.5411,0.3256,9.8306,-0.0195,0.0013,-0.0179,0
1.662519,-0.6273,0.2921,9.7875,-0.0157,-0.0043,-0.0181,0
1.668227,-0.6321,0.3208,9.8019,-0.0221,-0.0019,-0.0152,0
1.671975,-0.6943,0.3448,9.8545,-0.0237,-0.0056,-0.0155,0
1.676901,-0.6656,0.3352,9.7779,-0.0296,-0.0003,-0.0091,0
1.682877,-0.5986,0.3017,9.7540,-0.0232,-0.0016,-0.0069,0
1.688436,-0.6416,0.3591,9.8019,-0.0274,-0.0043,-0.0075,0
1.691834,-0.6800,0.3974,9.7540,-0.0240,-0.0093,-0.0059,0
1.695183,-0.6464,0.4310,9.7013,-0.0312,-0.0075,-0.0077,0
1.701636,-0.6560,0.3448,9.7971,-0.0253,-0.0088,-0.0013,0
1.705149,-0.6943,0.4262,9.7923,-0.0155,-0.0109,-0.0005,0
1.708469,-0.6800,0.4549,9.7683,-0.0245,-0.0144,-0.0013,0
1.711914,-0.6033,0.4405,9.8114,-0.0195,-0.0141,-0.0021,0
1.716503,-0.6081,0.4836,9.7779,-0.0149,-0.0117,0.0024,0
1.719729,-0.5842,0.4597,9.8162,-0.0155,-0.0141,0.0027,0
1.722837,-0.6512,0.5028,9.7683,-0.0157,-0.0165,-0.0021,0
1.725916,-0.5842,0.4310,9.8545,-0.0123,-0.0147,-0.0056,0
1.729478,-0.6608,0.5171,9.8306,-0.0109,-0.0109,-0.0019,0
1.733690,-0.6033,0.4788,9.8785,-0.0061,-0.0165,-0.0019,0
1.737166,-0.6560,0.4836,9.8545,-0.0040,-0.0136,0.0024,0
1.740431,-0.5794,0.3783,9.8450,-0.0045,-0.0123,-0.0016,0
1.743764,-0.5986,0.4549,9.8785,-0.0056,-0.0109,-0.0016,0
1.748030,-0.6081,0.4357,9.9024,-0.0067,-0.0083,-0.0005,0
1.751816,-0.6704,0.4645,9.7779,-0.0061,-0.0123,0.0003,0
1.755042,-0.6560,0.4405,9.8450,-0.0045,-0.0080,0.0043,0
1.758235,-0.6273,0.4166,9.8258,0.0003,-0.0085,-0.0008,0
1.761222,-0.7039,0.4262,9.8306,-0.0024,-0.0128,0.0064,0
1.764818,-0.6991,0.3065,9.8354,-0.0061,-0.0053,0.0075,0
1.769446,-0.6752,0.4022,9.8545,-0.0021,-0.0064,0.0059,0
1.772697,-0.6847,0.3496,9.8497,-0.0016,-0.0005,0.0144,0
1.776038,-0.7326,0.3496,9.8066,-0.0024,0.0032,0.0149,0
1.780625,-0.7135,0.3448,9.7971,0.0003,0.0016,0.0173,0
1.784352,-0.6895,0.3448,9.7731,-0.0040,0.0045,0.0232,0
1.787552,-0.6943,0.3591,9.7492,-0.0043,-0.0005,0.0258,0
1.790640,-0.7087,0.3783,9.7827,-0.0027,0.0024,0.0256,0
1.794283,-0.6752,0.3879,9.8114,-0.0011,0.0024,0.0258,0
1.798706,-0.6800,0.4310,9.8114,-0.0067,0.0003,0.0261,0
1.802063,-0.6369,0.4262,9.8066,-0.0024,-0.0024,0.0282,0
1.805126,-0.6512,0.4070,9.7779,-0.0016,-0.0005,0.0312,0
1.808485,-0.5938,0.5411,9.7827,-0.0008,-0.0032,0.0320,0
1.813535,-0.6129,0.4884,9.7348,0.0061,-0.0011,0.0266,0
1.818144,-0.6321,0.4741,9.7827,0.0091,0.0011,0.0234,0
1.821589,-0.5698,0.4501,9.7779,0.0061,-0.0005,0.0272,0
1.824713,-0.6033,0.4549,9.7252,0.0075,0.0037,0.0317,0
1.827652,-0.5698,0.4262,9.7396,0.0099,0.0075,0.0285,0
1.830686,-0.6081,0.3926,9.6965,0.0176,0.0064,0.0290,0
1.835561,-0.6225,0.3639,9.7157,0.0072,0.0141,0.0301,0
1.838858,-0.6321,0.3591,9.6869,0.0160,0.0131,0.0258,0
1.841948,-0.6081,0.3543,9.6917,0.0157,0.0112,0.0309,0
1.845539,-0.6416,0.3496,9.6678,0.0163,0.0221,0.0304,0
1.850828,-0.6225,0.2586,9.7061,0.0173,0.0242,0.0317,0
1.853979,-0.6225,0.3112,9.7683,0.0144,0.0229,0.0328,0
1.857189,-0.6704,0.2634,9.7396,0.0189,0.0280,0.0296,0
1.860282,-0.5650,0.2490,9.8019,0.0112,0.0248,0.0317,0
1.863310,-0.5986,0.2634,9.7683,0.0128,0.0245,0.0253,0
1.868517,-0.5890,0.2538,9.8066,0.0168,0.0211,0.0229,0
1.871777,-0.5842,0.2059,9.8019,0.0149,0.0211,0.0261,0
1.874984,-0.4884,0.2586,9.8785,0.0104,0.0147,0.0181,0
1.879517,-0.5411,0.2394,9.9216,0.0171,0.0168,0.0203,0
1.884104,-0.5890,0.2538,9.8881,0.0144,0.0101,0.0173,0
1.887687,-0.5267,0.3017,9.9024,0.0141,0.0109,0.0115,0
1.891510,-0.6081,0.3160,9.9120,0.0141,0.0075,0.0104,0
1.894827,-0.5842,0.2634,9.9790,0.0237,0.0069,0.0139,0
1.898373,-0.5938,0.2921,9.9647,0.0213,0.0069,0.0112,0
1.902360,-0.5986,0.3256,9.9695,0.0224,0.0064,0.0123,0
1.905647,-0.6321,0.3735,9.9838,0.0274,0.0075,0.0155,0
1.908787,-0.6800,0.3496,9.9647,0.0258,0.0048,0.0133,0
1.914165,-0.6895,0.4262,9.9838,0.0288,0.0051,0.0187,0
1.918064,-0.7183,0.3831,9.9695,0.0285,0.0072,0.0176,0
1.921424,-0.7087,0.3783,9.9503,0.0266,0.0059,0.0184,0
1.924651,-0.6752,0.3879,9.9838,0.0304,0.0021,0.0242,0
1.927620,-0.7326,0.4070,9.9503,0.0258,0.0016,0.0240,0
1.932121,-0.6704,0.4214,9.9264,0.0290,0.0013,0.0280,0
1.935702,-0.6177,0.4262,9.8785,0.0298,0.0053,0.0338,0
1.938885,-0.6895,0.4645,9.8210,0.0330,0.0075,0.0336,0
1.942488,-0.6225,0.3879,9.9024,0.0349,0.0072,0.0314,0
1.947001,-0.5698,0.3926,9.8019,0.0298,0.0107,0.0360,0
1.950923,-0.5890,0.4357,9.8162,0.0301,0.0120,0.0304,0
1.954071,-0.5794,0.4357,9.8306,0.0312,0.0160,0.0344,0
1.957448,-0.5555,0.3879,9.8258,0.0312,0.0157,0.0274,0
1.960459,-0.5363,0.5171,9.8210,0.0354,0.0232,0.0298,0
1.964172,-0.5315,0.4070,9.8258,0.0333,0.0224,0.0272,0
1.968933,-0.4693,0.4118,9.7827,0.0381,0.0250,0.0165,0
1.972020,-0.4214,0.4836,9.8066,0.0344,0.0237,0.0120,0
1.975175,-0.4645,0.3974,9.8354,0.0304,0.0368,0.0107,0
1.980094,-0.4980,0.3783,9.7971,0.0322,0.0378,0.0045,0
1.984170,-0.5076,0.3926,9.8402,0.0296,0.0368,0.0043,0
1.987274,-0.5267,0.3017,9.8306,0.0264,0.0360,-0.0032,0
1.990562,-0.5076,0.4118,9.8593,0.0282,0.0386,-0.0003,0
1.993531,-0.4693,0.4166,9.7923,0.0277,0.0373,-0.0075,0
1.996738,-0.6608,0.3400,9.8162,0.0195,0.0429,-0.0120,0
2.001097,-0.6512,0.2586,9.9647,0.0211,0.0448,-0.0040,0
2.004317,-0.5794,0.3112,9.8833,0.0173,0.0536,-0.0083,0
2.007468,-0.6704,0.3352,9.8737,0.0181,0.0552,-0.0043,0
2.011736,-0.7709,0.2921,9.8545,0.0203,0.0621,0.0027,0
2.015916,-0.6943,0.2825,9.9120,0.0213,0.0637,0.0021,0
2.019112,-0.6225,0.2921,9.8689,0.0208,0.0711,0.0067,0
2.022338,-0.7230,0.3496,9.8402,0.0184,0.0685,0.0064,0
2.025460,-0.6177,0.3831,9.8066,0.0213,0.0663,0.0061,0
2.028456,-0.5794,0.3448,9.7827,0.0141,0.0637,0.0112,0
2.032857,-0.6512,0.3879,9.8114,0.0157,0.0624,0.0107,0
2.036621,-0.6560,0.3831,9.7636,0.0072,0.0634,0.0107,0
2.039726,-0.6081,0.4166,9.7205,0.0101,0.0624,0.0104,0
2.043034,-0.5986,0.3065,9.8210,0.0048,0.0584,0.0141,0
2.047139,-0.6464,0.4453,9.8210,-0.0003,0.0642,0.0144,0
2.051083,-0.6225,0.4166,9.7588,0.0003,0.0576,0.0181,0
2.054151,-0.6321,0.3400,9.7779,-0.0029,0.0573,0.0149,0
2.057485,-0.6991,0.3543,9.7492,-0.0035,0.0605,0.0157,0
2.060449,-0.6656,0.4501,9.8066,-0.0088,0.0618,0.0195,0
2.065749,-0.6943,0.3974,9.8162,-0.0064,0.0642,0.0232,0
2.069100,-0.6895,0.4357,9.7875,-0.0067,0.0645,0.0200,0
2.072277,-0.6225,0.3304,9.7492,-0.0107,0.0645,0.0250,0
2.075712,-0.6512,0.3591,9.7731,-0.0147,0.0661,0.0237,0
2.080352,-0.6847,0.4405,9.8019,-0.0147,0.0650,0.0282,0
2.084131,-0.5794,0.3783,9.7588,-0.0085,0.0610,0.0229,0
2.087796,-0.5602,0.4262,9.7540,-0.0160,0.0653,0.0261,0
2.091204,-0.5842,0.4645,9.7588,-0.0149,0.0578,0.0277,0
2.094164,-0.5698,0.4549,9.7971,-0.0139,0.0552,0.0269,0
2.097786,-0.4501,0.4310,9.8258,-0.0115,0.0549,0.0208,0
2.102253,-0.5363,0.4453,9.8162,-0.0075,0.0504,0.0237,0
2.105475,-0.4788,0.4741,9.8354,-0.0048,0.0501,0.0229,0
2.108640,-0.4788,0.4980,9.8114,-0.0123,0.0498,0.0192,0
2.113776,-0.4118,0.4453,9.8162,-0.0080,0.0429,0.0173,0
2.117904,-0.4932,0.4597,9.8785,-0.0075,0.0453,0.0165,0
2.121082,-0.4980,0.4501,9.8737,-0.0051,0.0362,0.0141,0
2.124339,-0.5171,0.4310,9.8354,-0.0005,0.0400,0.0061,0
2.127296,-0.5028,0.4118,9.8737,-0.0021,0.0360,0.0035,0
2.130952,-0.5124,0.4166,9.8928,-0.0027,0.0408,-0.0013,0
2.135499,-0.5171,0.3974,9.8833,0.0005,0.0376,0.0005,0
2.138614,-0.5507,0.3735,9.8737,-0.0008,0.0378,0.0069,0
2.141895,-0.5602,0.4310,9.9551,0.0000,0.0322,-0.0032,0
2.146984,-0.5842,0.3543,9.8976,-0.0011,0.0288,0.0000,0
2.150934,-0.5315,0.3926,9.9216,0.0043,0.0338,0.0021,0
2.154024,-0.5986,0.4262,9.9216,-0.0016,0.0264,-0.0013,0
2.157207,-0.5650,0.3783,9.8785,0.0072,0.0226,-0.0075,0
2.160155,-0.5938,0.3831,9.8545,0.0053,0.0211,-0.0021,0
2.163523,-0.6081,0.4022,9.8593,0.0080,0.0197,-0.0040,0
2.167587,-0.6129,0.3879,9.7923,0.0123,0.0187,-0.0045,0
2.170913,-0.5794,0.4405,9.7827,0.0080,0.0136,-0.0040,0
2.174096,-0.6416,0.3831,9.8258,0.0117,0.0125,-0.0016,0
2.178132,-0.5698,0.3974,9.7396,0.0133,0.0061,-0.0013,0
2.182508,-0.5698,0.3400,9.7252,0.0128,0.0056,-0.0005,0
2.185827,-0.5507,0.3639,9.7157,0.0080,0.0056,-0.0083,0
2.189272,-0.5459,0.3543,9.6917,0.0107,0.0003,-0.0024,0
2.192443,-0.5986,0.3017,9.7492,0.0152,-0.0003,-0.0024,0
2.195525,-0.5315,0.3160,9.7061,0.0064,-0.0067,-0.0032,0
2.200240,-0.5411,0.2825,9.7300,0.0112,-0.0048,-0.0072,0
2.203409,-0.5842,0.3160,9.7252,0.0123,-0.0115,-0.0080,0
2.206543,-0.6081,0.3112,9.7205,0.0149,-0.0101,-0.0043,0
2.209806,-0.6512,0.3017,9.7827,0.0179,-0.0171,-0.0091,0
2.213981,-0.6273,0.3496,9.7827,0.0128,-0.0234,-0.0072,0
2.217838,-0.5890,0.3208,9.8450,0.0173,-0.0256,-0.0077,0
2.220987,-0.6321,0.3448,9.7779,0.0176,-0.0264,-0.0064,0
2.224307,-0.5842,0.3831,9.7875,0.0192,-0.0328,-0.0061,0
2.227316,-0.6512,0.3352,9.8450,0.0131,-0.0325,-0.0059,0
2.231033,-0.6560,0.3687,9.8689,0.0165,-0.0440,0.0000,0
2.235501,-0.6321,0.4214,9.8881,0.0163,-0.0445,-0.0027,0
2.238691,-0.6321,0.4070,9.9216,0.0197,-0.0456,-0.0075,0
2.242376,-0.5746,0.4453,9.8354,0.0224,-0.0496,-0.0080,0
2.246836,-0.5986,0.4262,9.9264,0.0179,-0.0557,-0.0112,0
2.250736,-0.5315,0.4357,9.8928,0.0232,-0.0570,-0.0104,0
2.253943,-0.6081,0.4310,9.8976,0.0221,-0.0584,-0.0096,0
2.257173,-0.6273,0.4501,9.8881,0.0298,-0.0634,-0.0115,0
2.260132,-0.6369,0.4693,9.9024,0.0266,-0.0671,-0.0131,0
2.263651,-0.5650,0.4836,9.8019,0.0226,-0.0642,-0.0115,0
2.268722,-0.6321,0.4549,9.8976,0.0258,-0.0725,-0.0136,0
2.271824,-0.6129,0.4645,9.8881,0.0264,-0.0666,-0.0117,0
2.275497,-0.6512,0.4597,9.8162,0.0213,-0.0703,-0.0107,0
2.279983,-0.7135,0.4022,9.8114,0.0179,-0.0730,-0.0104,0
2.283889,-0.7230,0.3974,9.8497,0.0216,-0.0706,-0.0080,0
2.287198,-0.7278,0.4118,9.7779,0.0157,-0.0815,-0.0013,0
2.290663,-0.6895,0.3735,9.8114,0.0128,-0.0783,-0.0011,0
2.294166,-0.7278,0.3974,9.7636,0.0051,-0.0837,-0.0003,0
2.298718,-0.7709,0.3304,9.7300,0.0021,-0.0821,0.0027,0
2.302122,-0.7709,0.3735,9.7636,0.0011,-0.0829,0.0107,0
2.305219,-0.7278,0.4022,9.7205,-0.0035,-0.0818,0.0128,0
2.308530,-0.7422,0.3448,9.6965,-0.0109,-0.0882,0.0147,0
2.313876,-0.7757,0.3639,9.6007,-0.0240,-0.0818,0.0195,0
2.317993,-0.7374,0.3352,9.6438,-0.0211,-0.0839,0.0245,0
2.321237,-0.7183,0.3783,9.5912,-0.0285,-0.0858,0.0261,0
2.324471,-0.7039,0.3639,9.5529,-0.0309,-0.0850,0.0272,0
2.327458,-0.7039,0.3352,9.5816,-0.0445,-0.0855,0.0312,0
2.330979,-0.7135,0.3400,9.5002,-0.0472,-0.0813,0.0314,0
2.335480,-0.6656,0.3591,9.5768,-0.0469,-0.0799,0.0344,0
2.338646,-0.7278,0.3496,9.5672,-0.0461,-0.0815,0.0320,0
2.341830,-0.6464,0.3400,9.5624,-0.0621,-0.0757,0.0298,0
2.347048,-0.6273,0.3735,9.4763,-0.0568,-0.0679,0.0317,0
2.351078,-0.5938,0.3926,9.4667,-0.0544,-0.0674,0.0349,0
2.354252,-0.6464,0.3687,9.4858,-0.0570,-0.0634,0.0250,0
2.357418,-0.6321,0.3879,9.5193,-0.0565,-0.0632,0.0258,0
2.360372,-0.5986,0.3400,9.5146,-0.0594,-0.0594,0.0211,0
2.364959,-0.6225,0.3543,9.5529,-0.0621,-0.0506,0.0242,0
2.368457,-0.6321,0.3783,9.5146,-0.0578,-0.0488,0.0197,0
2.371527,-0.6464,0.3687,9.5289,-0.0608,-0.0485,0.0216,0
2.374656,-0.6512,0.3735,9.4284,-0.0530,-0.0421,0.0144,0
2.379673,-0.5890,0.3735,9.5193,-0.0472,-0.0432,0.0149,0
2.383852,-0.6129,0.4214,9.6151,-0.0474,-0.0402,0.0109,0
2.387380,-0.5315,0.3974,9.5672,-0.0445,-0.0416,0.0075,0
2.390759,-0.5986,0.4597,9.5529,-0.0448,-0.0306,0.0064,0
2.393958,-0.5650,0.4405,9.5864,-0.0402,-0.0312,0.0021,0
2.398874,-0.5459,0.4549,9.6007,-0.0381,-0.0250,-0.0011,0
2.402243,-0.5076,0.4070,9.6486,-0.0338,-0.0253,-0.0059,0
2.405471,-0.5746,0.5171,9.6438,-0.0269,-0.0208,-0.0037,0
2.408849,-0.5650,0.5746,9.6678,-0.0322,-0.0147,-0.0099,0
2.413141,-0.5315,0.5315,9.6103,-0.0248,-0.0005,-0.0179,0
2.417039,-0.5890,0.4788,9.6343,-0.0192,0.0021,-0.0149,0
2.420043,-0.5363,0.4788,9.6438,-0.0237,0.0069,-0.0192,0
2.423468,-0.5650,0.5028,9.6534,-0.0165,0.0147,-0.0224,0
2.426438,-0.5842,0.4980,9.6774,-0.0187,0.0195,-0.0261,0
2.429645,-0.4645,0.4645,9.7013,-0.0099,0.0314,-0.0338,0
2.434048,-0.5219,0.5507,9.7157,-0.0093,0.0264,-0.0338,0
2.437214,-0.5219,0.4980,9.6822,-0.0059,0.0368,-0.0400,0
2.440460,-0.5267,0.4645,9.7252,-0.0005,0.0368,-0.0392,0
2.444648,-0.5698,0.4741,9.6869,0.0027,0.0546,-0.0472,0
2.448930,-0.5028,0.4357,9.7157,0.0109,0.0578,-0.0496,0
2.452084,-0.5602,0.4980,9.7636,0.0109,0.0565,-0.0522,0
2.455459,-0.6560,0.4405,9.7252,0.0104,0.0624,-0.0552,0
2.458503,-0.5746,0.4453,9.7348,0.0123,0.0682,-0.0560,0
2.461569,-0.5890,0.3974,9.7540,0.0128,0.0725,-0.0616,0
2.466683,-0.5794,0.3400,9.7109,0.0179,0.0733,-0.0602,0
2.469877,-0.6704,0.3783,9.7731,0.0165,0.0829,-0.0594,0
2.472929,-0.6416,0.3448,9.7252,0.0226,0.0834,-0.0581,0
2.476557,-0.6369,0.3448,9.6822,0.0197,0.0799,-0.0578,0
2.482033,-0.7326,0.3926,9.7252,0.0181,0.0903,-0.0597,0
2.485358,-0.7470,0.3543,9.6343,0.0203,0.0973,-0.0506,0
2.493750,-0.7422,0.3400,9.6774,0.0181,0.0957,-0.0480,0
2.498651,-0.6895,0.4310,9.6630,0.0149,0.0919,-0.0461,0
2.502703,-0.7183,0.3639,9.6774,0.0131,0.0949,-0.0357,0
2.506287,-0.7661,0.4022,9.7157,0.0144,0.0933,-0.0336,0
2.510066,-0.7326,0.4453,9.6486,0.0099,0.0951,-0.0234,0
2.515757,-0.7518,0.5124,9.7252,0.0029,0.0882,-0.0229,0
2.519047,-0.7614,0.4693,9.7827,0.0107,0.0895,-0.0203,0
2.522436,-0.7374,0.4501,9.7109,0.0093,0.0911,-0.0152,0
2.525525,-0.8188,0.4214,9.7492,0.0061,0.0895,-0.0141,0
2.528609,-0.7614,0.5219,9.7540,0.0061,0.0877,-0.0048,0
2.533721,-0.7566,0.5315,9.7923,0.0099,0.0842,-0.0016,0
2.536910,-0.7470,0.4741,9.7348,0.0064,0.0789,0.0011,0
2.540033,-0.7661,0.5315,9.7731,0.0133,0.0743,0.0155,0
2.544522,-0.6991,0.4788,9.6438,0.0099,0.0703,0.0168,0
2.548761,-0.7422,0.5315,9.7588,0.0144,0.0709,0.0179,0
2.551921,-0.7039,0.5076,9.6247,0.0149,0.0629,0.0248,0
2.555110,-0.6656,0.5076,9.6917,0.0104,0.0653,0.0253,0
2.558208,-0.6847,0.4884,9.7300,0.0144,0.0642,0.0261,0
2.561193,-0.6560,0.5363,9.7157,0.0216,0.0586,0.0261,0
2.565497,-0.6273,0.5267,9.7252,0.0253,0.0562,0.0298,0
2.569184,-0.6225,0.4836,9.7205,0.0229,0.0469,0.0293,0
2.572408,-0.6464,0.4884,9.7061,0.0320,0.0490,0.0274,0
2.575644,-0.5459,0.4980,9.6391,0.0312,0.0450,0.0293,0
2.579871,-0.5746,0.4741,9.6630,0.0389,0.0394,0.0330,0
2.583715,-0.5794,0.4741,9.6678,0.0424,0.0386,0.0362,0
2.587006,-0.5986,0.4166,9.6774,0.0482,0.0402,0.0293,0
2.590262,-0.5842,0.4836,9.6486,0.0482,0.0333,0.0346,0
2.593243,-0.5794,0.4788,9.6295,0.0472,0.0328,0.0272,0
2.596771,-0.6033,0.4501,9.6774,0.0514,0.0234,0.0320,0
2.600953,-0.5986,0.3783,9.5768,0.0562,0.0216,0.0277,0
2.604844,-0.5602,0.4214,9.6007,0.0528,0.0218,0.0304,0
2.608748,-0.5650,0.4166,9.5816,0.0586,0.0189,0.0314,0
2.613029,-0.5555,0.3735,9.4715,0.0565,0.0093,0.0280,0
2.616948,-0.5363,0.3831,9.4571,0.0536,0.0040,0.0229,0
2.620296,-0.6033,0.3496,9.4332,0.0544,0.0037,0.0229,0
2.623566,-0.5602,0.3352,9.4188,0.0416,-0.0035,0.0248,0
2.626550,-0.5411,0.3400,9.3901,0.0509,-0.0091,0.0250,0
2.629865,-0.6369,0.2825,9.2943,0.0413,-0.0181,0.0256,0
2.633997,-0.5746,0.2682,9.2512,0.0333,-0.0160,0.0248,0
2.637264,-0.6464,0.2586,9.1842,0.0317,-0.0253,0.0248,0
2.640450,-0.6512,0.1867,9.1219,0.0157,-0.0304,0.0304,0
2.644448,-0.6369,0.1293,9.0644,0.0091,-0.0368,0.0298,0
2.648585,-0.6560,0.0670,8.9208,0.0005,-0.0426,0.0312,0
2.651790,-0.7230,0.1053,8.9016,-0.0056,-0.0544,0.0354,0
2.655281,-0.7805,0.0383,8.7819,-0.0115,-0.0554,0.0405,0
2.658324,-0.7230,0.0335,8.6622,-0.0216,-0.0637,0.0424,0
2.661411,-0.6608,0.0239,8.5425,-0.0349,-0.0698,0.0477,0
2.666470,-0.6800,-0.0048,8.3318,-0.0424,-0.0871,0.0541,0
2.669644,-0.6752,0.0144,8.1211,-0.0466,-0.0911,0.0578,0
2.672726,-0.6512,0.0814,8.0445,-0.0621,-0.0973,0.0645,0
2.676363,-0.4932,0.1580,7.7285,-0.0679,-0.1202,0.0560,0
2.681942,-0.3543,0.1484,7.3310,-0.0600,-0.1396,0.0512,0
2.685169,-0.3352,0.1724,7.0725,-0.0637,-0.1460,0.0514,0
2.688434,-0.2777,0.2059,6.8426,-0.0592,-0.1689,0.0413,0
2.691493,-0.3208,0.1724,6.5601,-0.0554,-0.1820,0.0349,0
2.694486,-0.4741,0.0383,6.4117,-0.0381,-0.1927,0.0325,0
2.698759,-0.3160,-0.0048,5.9616,-0.0115,-0.2044,0.0298,0
2.702176,-0.1963,0.0431,5.6024,0.0099,-0.2180,0.0277,0
2.705467,-0.1963,0.1724,5.1284,0.0389,-0.2238,0.0229,0
2.708926,-0.1580,0.1772,4.5633,0.0893,-0.2262,0.0184,0
2.713248,0.3256,0.8332,3.1220,0.1274,-0.2443,0.0091,0
2.717008,0.3256,1.2067,2.3224,0.1479,-0.2337,-0.0075,0
2.720115,-0.0239,0.8571,1.7286,0.1679,-0.2409,-0.0131,0
2.723457,-0.0096,0.5459,1.4940,0.1791,-0.2459,-0.0163,0
2.726447,0.2011,0.7566,1.0104,0.1865,-0.2228,-0.0200,1
2.729929,-0.0239,0.9912,0.1101,0.1679,-0.2257,-0.0258,1
2.734208,0.1772,0.3017,0.2634,0.1663,-0.2153,-0.0272,1
2.737484,0.1915,-0.0862,0.4022,0.1671,-0.2102,-0.0360,1
2.740579,-0.0239,0.3160,0.0958,0.1583,-0.2084,-0.0506,1
2.744413,-0.3017,0.6943,-0.8954,0.1482,-0.2036,-0.0328,1
2.748673,-0.0192,-0.5076,0.3448,0.1428,-0.2084,-0.0341,1
2.751801,0.1580,-0.6704,0.8906,0.1615,-0.2038,-0.0410,1
2.755355,-0.0479,0.1101,0.2011,0.1671,-0.2076,-0.0480,1
2.758446,-0.1915,0.4501,-0.2203,0.1543,-0.2068,-0.0400,1
2.761522,-0.1389,-0.0766,-0.0527,0.1514,-0.2102,-0.0421,1
2.766715,0.1245,-0.5459,0.4549,0.1548,-0.2065,-0.0509,1
2.769940,-0.2059,0.1915,0.0862,0.1588,-0.2041,-0.0432,1
2.773078,-0.1580,0.4070,-0.0383,0.1529,-0.2022,-0.0370,1
2.776483,0.1006,-0.3160,0.4741,0.1583,-0.2057,-0.0432,1
2.781725,0.0096,-0.3831,0.3879,0.1639,-0.2076,-0.0493,1
2.784927,-0.2059,0.1245,-0.0479,0.1615,-0.2068,-0.0440,1
2.788024,-0.0479,0.2921,-0.0718,0.1519,-0.2060,-0.0397,1
2.791751,0.0383,-0.2873,0.5363,0.1577,-0.2049,-0.0394,1
2.795154,-0.0192,-0.3974,0.6081,0.1721,-0.2060,-0.0426,1
2.799370,-0.1149,0.1197,0.0622,0.1665,-0.2025,-0.0469,1
2.802559,-0.0958,0.2346,-0.0383,0.1604,-0.2020,-0.0397,1
2.805719,-0.0239,-0.1772,0.3112,0.1633,-0.2033,-0.0397,1
2.809467,0.0287,-0.3735,0.5459,0.1689,-0.2084,-0.0458,1
2.813938,-0.0335,0.1341,0.2969,0.1679,-0.2062,-0.0434,1
2.817716,-0.1580,0.0910,0.2777,0.1583,-0.2038,-0.0386,1
2.820746,0.0048,-0.2059,0.3783,0.1639,-0.2057,-0.0426,1
2.823984,0.0718,-0.2729,0.4932,0.1676,-0.2081,-0.0469,1
2.826996,0.0144,-0.0958,0.3065,0.1692,-0.2100,-0.0450,1
2.830763,-0.0958,0.0527,0.3208,0.1716,-0.2158,-0.0405,1
2.835487,0.0287,-0.1867,0.5411,0.1695,-0.2041,-0.0418,1
2.838711,-0.0096,-0.2586,0.5315,0.1673,-0.2137,-0.0426,1
2.842187,-0.1532,0.0000,0.2873,0.1737,-0.2057,-0.0421,1
2.846844,0.0048,-0.0144,0.3160,0.1695,-0.2054,-0.0429,1
2.850784,0.0192,-0.1867,0.6416,0.1692,-0.2038,-0.0389,1
2.853896,-0.0144,-0.2490,0.6464,0.1740,-0.2121,-0.0440,1
2.857110,-0.0192,0.0622,0.4549,0.1860,-0.2145,-0.0408,1
2.860428,-0.0144,0.0479,0.2586,0.1724,-0.2113,-0.0437,1
2.863891,-0.0048,-0.1963,0.4693,0.1775,-0.2132,-0.0448,1
2.868372,-0.0048,-0.1915,0.5507,0.1820,-0.2140,-0.0456,1
2.871495,-0.0048,0.0192,0.4357,0.1796,-0.2073,-0.0469,1
2.874836,-0.0239,0.0287,0.4693,0.1820,-0.2118,-0.0426,1
2.880465,0.0239,-0.2490,0.4980,0.1801,-0.2054,-0.0434,1
2.884265,-0.0383,-0.0670,0.4310,0.1852,-0.2134,-0.0437,1
2.887322,-0.0670,-0.0144,0.4070,0.1841,-0.2126,-0.0445,1
2.890524,-0.0718,-0.0431,0.4932,0.1820,-0.2140,-0.0410,1
2.893783,-0.0096,-0.1580,0.5842,0.1839,-0.2140,-0.0458,1
2.897090,-0.0383,-0.1149,0.5746,0.1924,-0.2126,-0.0456,1
2.901190,-0.1053,-0.0048,0.4645,0.1876,-0.2164,-0.0458,1
2.904510,-0.0287,0.0096,0.4884,0.1836,-0.2140,-0.0453,1
2.908490,0.0144,-0.1724,0.5986,0.1905,-0.2110,-0.0456,1
2.912502,-0.0766,-0.0814,0.6321,0.1958,-0.2172,-0.0434,1
2.916444,-0.0814,-0.0287,0.5650,0.1921,-0.2121,-0.0472,1
2.919633,-0.0670,-0.1006,0.5171,0.1937,-0.2182,-0.0490,1
2.922736,-0.0383,-0.1724,0.5794,0.1996,-0.2113,-0.0522,1
2.926283,-0.0192,-0.0670,0.5459,0.1972,-0.2166,-0.0458,1
2.929742,-0.0527,-0.0814,0.5842,0.1988,-0.2188,-0.0466,1
2.933799,-0.0048,-0.1389,0.6560,0.1982,-0.2158,-0.0474,1
2.936943,0.0048,-0.2107,0.6129,0.1998,-0.2190,-0.0490,1
2.940046,-0.0335,-0.0958,0.5938,0.1996,-0.2169,-0.0485,1
2.943697,-0.0479,-0.0575,0.5794,0.2038,-0.2217,-0.0461,1
2.947971,-0.0575,-0.1149,0.5698,0.1998,-0.2124,-0.0533,1
2.951392,0.0383,-0.1628,0.6081,0.2054,-0.2196,-0.0466,1
2.954444,0.0144,-0.1197,0.7039,0.2073,-0.2185,-0.0501,1
2.958106,-0.0670,-0.0622,0.5986,0.2057,-0.2209,-0.0488,1
2.961092,-0.0192,-0.0383,0.5890,0.2076,-0.2214,-0.0477,1
2.965488,-0.0192,-0.1149,0.6656,0.2097,-0.2225,-0.0448,1
2.968927,-0.0431,-0.0622,0.6177,0.2126,-0.2193,-0.0461,1
2.972082,-0.0287,-0.0575,0.6464,0.2068,-0.2284,-0.0442,1
2.975685,0.0096,-0.0335,0.6081,0.2145,-0.2238,-0.0466,1
2.980398,-0.0766,-0.0862,0.6177,0.2081,-0.2244,-0.0461,1
2.984075,-0.0239,-0.1006,0.6177,0.2132,-0.2244,-0.0477,1
2.987114,0.0239,-0.0144,0.6081,0.2174,-0.2238,-0.0477,1
2.990217,0.0144,-0.0814,0.6081,0.2110,-0.2236,-0.0445,1
2.993390,-0.0144,-0.0766,0.7039,0.2124,-0.2233,-0.0418,1
2.996810,-0.0239,-0.0670,0.5842,0.2153,-0.2236,-0.0450,1
3.001294,-0.0862,-0.0622,0.5602,0.2134,-0.2302,-0.0440,1
3.004470,-0.0192,-0.0335,0.6033,0.2132,-0.2308,-0.0466,1
3.007734,-0.0144,-0.0958,0.6416,0.2153,-0.2270,-0.0474,1
3.013956,-0.0287,-0.0670,0.6225,0.2180,-0.2302,-0.0477,1
3.017843,-0.0048,-0.0718,0.5938,0.2161,-0.2289,-0.0445,1
3.020895,-0.0431,-0.0910,0.5507,0.2145,-0.2294,-0.0474,1
3.024246,-0.0144,-0.0910,0.6177,0.2188,-0.2316,-0.0469,1
3.027275,-0.0479,-0.1676,0.6225,0.2169,-0.2308,-0.0464,0
3.030829,-0.0287,-0.0670,0.6177,0.2190,-0.2302,-0.0464,0
3.035577,-0.0335,-0.0622,0.5555,0.2201,-0.2284,-0.0466,0
3.038767,-0.0431,-0.1245,0.6321,0.2158,-0.2302,-0.0477,0
3.041945,-0.0383,-0.0958,0.5842,0.2217,-0.2305,-0.0490,0
3.047351,-0.0287,-0.1245,0.6369,0.2129,-0.2257,-0.0469,0
3.051001,-0.0144,-0.0814,0.6704,0.2196,-0.2321,-0.0485,0
3.054053,0.0144,-0.1101,0.6033,0.2164,-0.2340,-0.0466,0
3.057591,-0.0192,-0.0575,0.5219,0.2188,-0.2278,-0.0501,0
3.060656,0.0096,-0.0910,0.5938,0.2204,-0.2334,-0.0520,0
3.064491,0.0000,-0.1006,0.6225,0.2180,-0.2358,-0.0466,0
3.069193,0.0239,-0.0910,0.6943,0.2150,-0.2332,-0.0501,0
3.072434,-0.0192,-0.1006,0.6177,0.2113,-0.2340,-0.0474,0
3.075580,0.0431,-0.1341,0.6273,0.2140,-0.2364,-0.0552,0
3.080145,-0.0622,-0.1101,0.6560,0.2150,-0.2300,-0.0472,0
3.083971,-0.0096,-0.1580,0.6991,0.2182,-0.2353,-0.0480,0
3.087027,-0.0192,-0.0910,0.6464,0.2100,-0.2366,-0.0520,0
3.090148,0.0239,-0.0431,0.6991,0.2148,-0.2356,-0.0525,0
3.093317,-0.0383,-0.0814,0.6847,0.2094,-0.2364,-0.0496,0
3.096709,0.0239,-0.1053,0.6800,0.2052,-0.2369,-0.0544,0
3.101226,-0.0048,-0.0383,0.7183,0.2044,-0.2334,-0.0544,0
3.104424,0.0192,-0.0287,0.6608,0.2017,-0.2334,-0.0578,0
3.107883,-0.0096,-0.1293,0.6895,0.1996,-0.2403,-0.0530,0
3.113917,-0.0096,-0.0622,0.6800,0.2060,-0.2374,-0.0592,0
3.117782,-0.0096,-0.1341,0.7470,0.2006,-0.2358,-0.0565,0
3.120829,0.0048,-0.0718,0.7805,0.1977,-0.2361,-0.0546,0
3.124158,-0.0096,-0.1149,0.7518,0.1921,-0.2364,-0.0541,0
3.127232,-0.0670,-0.1101,0.8045,0.1937,-0.2385,-0.0544,0
3.131428,-0.0622,-0.0670,0.7757,0.1932,-0.2332,-0.0562,0
3.134923,-0.0096,-0.0479,0.8284,0.1924,-0.2366,-0.0616,0
3.138056,-0.0670,-0.0958,0.8045,0.1937,-0.2380,-0.0560,0
3.141333,-0.0575,-0.0958,0.7997,0.1929,-0.2364,-0.0562,0
3.145302,0.0383,-0.0670,0.8092,0.1868,-0.2366,-0.0573,0
3.149436,-0.0335,-0.0910,0.8380,0.1892,-0.2334,-0.0552,0
3.152615,-0.1197,-0.0670,0.8284,0.1852,-0.2308,-0.0605,0
3.155749,-0.0431,-0.1437,0.7997,0.1783,-0.2340,-0.0546,0
3.158942,0.0000,-0.1484,0.7949,0.1815,-0.2350,-0.0573,0
3.161985,-0.1245,-0.1101,0.8667,0.1793,-0.2334,-0.0552,0
3.166109,-0.0910,-0.1484,0.8332,0.1724,-0.2334,-0.0544,0
3.169730,-0.0575,-0.1437,0.9002,0.1687,-0.2268,-0.0560,0
3.172895,-0.1197,-0.1915,0.8906,0.1716,-0.2281,-0.0536,0
3.176270,-0.0718,-0.1245,0.8954,0.1649,-0.2292,-0.0560,0
3.180957,-0.0048,-0.1197,0.8715,0.1633,-0.2244,-0.0528,0
3.184479,-0.1245,-0.1772,0.9002,0.1599,-0.2220,-0.0514,0
3.187536,-0.1149,-0.1580,0.9529,0.1609,-0.2249,-0.0504,0
3.190756,-0.1389,-0.1293,0.8811,0.1508,-0.2212,-0.0472,0
3.193879,-0.0862,-0.1484,0.9290,0.1484,-0.2244,-0.0506,0
3.197369,-0.1245,-0.1341,0.9529,0.1476,-0.2236,-0.0466,0
3.201920,-0.0144,-0.1437,0.9960,0.1378,-0.2172,-0.0469,0
3.205411,-0.0670,-0.1676,0.9146,0.1423,-0.2102,-0.0520,0
3.208620,-0.1245,-0.2011,0.9577,0.1370,-0.2156,-0.0461,0
3.214477,-0.1053,-0.1628,0.9337,0.1290,-0.2142,-0.0418,0
3.218373,-0.0431,-0.0766,1.0151,0.1258,-0.2078,-0.0405,0
3.221816,-0.1197,-0.1580,1.0151,0.1212,-0.2092,-0.0376,0
3.225420,-0.1867,-0.1580,0.9912,0.1175,-0.2084,-0.0418,0
3.228509,-0.1053,-0.1532,1.0151,0.1143,-0.2044,-0.0349,0
3.232603,-0.1724,-0.1484,1.0008,0.1079,-0.2009,-0.0402,0
3.236010,-0.1389,-0.1101,1.0008,0.1098,-0.1980,-0.0336,0
3.239144,-0.0766,-0.1197,0.9720,0.1050,-0.1961,-0.0357,0
3.242190,-0.0910,-0.1580,0.9337,0.1015,-0.1961,-0.0365,0
3.246177,-0.1149,-0.0479,0.9625,0.0914,-0.1998,-0.0378,0
3.250741,-0.0766,-0.1006,0.9864,0.0877,-0.1924,-0.0330,0
3.253912,-0.0910,-0.1006,0.9577,0.0837,-0.1945,-0.0304,0
3.257400,-0.1197,-0.1772,1.0534,0.0805,-0.1879,-0.0368,0
3.260468,-0.0910,-0.0766,1.0104,0.0781,-0.1905,-0.0312,0
3.263646,-0.1580,-0.0958,1.1157,0.0690,-0.1839,-0.0304,0
3.268704,-0.1053,-0.1580,1.1684,0.0690,-0.1849,-0.0288,0
3.272001,-0.0718,-0.1484,1.1732,0.0648,-0.1836,-0.0282,0
3.275134,-0.0958,-0.1532,1.1588,0.0621,-0.1788,-0.0266,0
3.279546,-0.1006,-0.1197,1.1732,0.0530,-0.1799,-0.0216,0
3.283421,-0.1293,-0.1101,1.1732,0.0536,-0.1793,-0.0218,0
3.286666,-0.1389,-0.1915,1.2258,0.0482,-0.1735,-0.0187,0
3.290016,-0.1006,-0.1676,1.1636,0.0437,-0.1679,-0.0208,0
3.293213,-0.1724,-0.1772,1.1971,0.0408,-0.1652,-0.0208,0
3.296435,-0.1053,-0.1532,1.2258,0.0349,-0.1655,-0.0168,0
3.300393,-0.1389,-0.1820,1.2594,0.0248,-0.1548,-0.0165,0
3.309215,-0.0670,-0.1532,1.3120,0.0189,-0.1553,-0.0155,0
3.313411,-0.1053,-0.1820,1.3216,0.0131,-0.1498,-0.0221,0
3.316840,-0.1293,-0.1580,1.3168,0.0133,-0.1535,-0.0173,0
3.319938,-0.1149,-0.1580,1.2163,0.0029,-0.1460,-0.0200,0
3.322985,-0.0239,-0.1053,1.2881,0.0024,-0.1407,-0.0147,0
3.326341,-0.0575,-0.2538,1.3024,0.0043,-0.1479,-0.0144,0
3.330778,-0.1724,-0.1772,1.2306,-0.0061,-0.1370,-0.0115,0
3.334304,-0.1149,-0.1628,1.1732,-0.0075,-0.1386,-0.0131,0
3.337466,-0.1532,-0.1437,1.2450,-0.0211,-0.1375,-0.0173,0
3.340546,-0.1053,-0.2155,1.1779,-0.0229,-0.1375,-0.0131,0
3.345215,-0.1149,-0.1197,1.2594,-0.0306,-0.1386,-0.0075,0
3.349164,-0.0622,-0.1484,1.3024,-0.0346,-0.1282,-0.0088,0
3.352390,-0.1484,-0.1341,1.2689,-0.0378,-0.1359,-0.0051,0
3.355554,-0.1101,-0.1149,1.2594,-0.0445,-0.1308,-0.0016,0
3.358660,-0.1053,-0.0862,1.2163,-0.0400,-0.1314,-0.0040,0
3.361733,-0.1867,-0.1532,1.3216,-0.0461,-0.1268,0.0019,0
3.366634,-0.0958,-0.1053,1.4269,-0.0517,-0.1220,-0.0024,0
3.369991,-0.1101,-0.1006,1.4605,-0.0530,-0.1180,-0.0019,0
3.373155,-0.1532,-0.0958,1.5083,-0.0493,-0.1194,-0.0019,0
3.377496,-0.2107,-0.0910,1.5275,-0.0538,-0.1148,0.0045,0
3.381625,-0.1628,-0.0814,1.5371,-0.0570,-0.1071,0.0053,0
3.385306,-0.1197,-0.1053,1.5036,-0.0600,-0.1050,0.0099,0
3.388527,-0.1149,-0.0814,1.5467,-0.0626,-0.1023,0.0069,0
3.391697,-0.0862,-0.0862,1.6137,-0.0616,-0.0973,0.0107,0
3.394777,-0.0958,-0.1389,1.5227,-0.0584,-0.0935,0.0117,0
3.398433,-0.1820,-0.0910,1.6185,-0.0624,-0.0917,0.0075,0
3.402913,-0.0575,-0.0718,1.6424,-0.0674,-0.0869,0.0091,0
3.406153,-0.1580,-0.0958,1.5945,-0.0632,-0.0794,0.0112,0
3.409733,-0.2298,-0.0766,1.6185,-0.0594,-0.0802,0.0109,0
3.414306,-0.1053,-0.0862,1.5897,-0.0698,-0.0773,0.0173,0
3.417821,-0.1006,-0.1006,1.6089,-0.0701,-0.0666,0.0141,0
3.420894,-0.1006,-0.1006,1.5419,-0.0725,-0.0666,0.0147,0
3.424309,-0.1197,-0.1053,1.5610,-0.0749,-0.0624,0.0173,0
3.427375,-0.0958,-0.0575,1.4748,-0.0722,-0.0642,0.0200,0
3.430613,-0.1724,-0.1389,1.4988,-0.0813,-0.0589,0.0163,0
3.434825,-0.2011,-0.1245,1.5658,-0.0767,-0.0626,0.0211,0
3.438149,-0.1293,-0.0862,1.5514,-0.0839,-0.0538,0.0200,0
3.441147,-0.0383,-0.0335,1.4988,-0.0866,-0.0509,0.0226,0
3.444484,-0.0718,-0.1101,1.5371,-0.0927,-0.0384,0.0237,0
3.448724,-0.0622,-0.0814,1.4988,-0.0887,-0.0437,0.0211,0
3.451921,-0.0048,-0.0335,1.5227,-0.0911,-0.0330,0.0208,0
3.454958,-0.0910,-0.0575,1.4892,-0.0946,-0.0325,0.0224,0
3.457938,-0.1197,-0.1245,1.5706,-0.0935,-0.0306,0.0203,0
3.461515,-0.0335,-0.0766,1.6233,-0.0973,-0.0253,0.0229,0
3.465923,0.0096,-0.0479,1.6233,-0.0989,-0.0205,0.0240,0
3.469110,-0.0670,-0.0192,1.6281,-0.0983,-0.0181,0.0203,0
3.472287,-0.0766,-0.0048,1.5467,-0.0965,-0.0136,0.0272,0
3.476333,-0.0575,-0.0192,1.6951,-0.0986,-0.0104,0.0181,0
3.481670,-0.0814,-0.0479,1.7430,-0.1023,-0.0093,0.0192,0
3.484924,-0.1197,-0.0766,1.8148,-0.1023,-0.0080,0.0229,0
3.488290,-0.0383,-0.0431,1.7957,-0.1023,-0.0069,0.0226,0
3.491453,-0.1101,-0.0575,1.7573,-0.1082,-0.0024,0.0218,0
3.494504,-0.2394,-0.0814,1.7813,-0.1050,-0.0008,0.0234,0
3.498738,-0.1245,-0.0479,1.8914,-0.0994,0.0061,0.0269,0
3.502419,-0.1867,-0.0479,1.9968,-0.1007,0.0067,0.0264,0
3.505612,-0.2251,-0.0431,2.1069,-0.1010,0.0117,0.0290,0
3.509056,-0.1820,0.0144,2.1548,-0.1031,0.0181,0.0349,0
3.513915,-0.1437,-0.0622,2.1739,-0.0986,0.0226,0.0349,0
3.517739,-0.2011,-0.0766,2.1835,-0.1053,0.0330,0.0370,0
3.520970,-0.1724,-0.0479,2.3128,-0.1031,0.0325,0.0373,0
3.524456,-0.1293,-0.0239,2.3607,-0.1010,0.0394,0.0370,0
3.527499,-0.2538,-0.0287,2.5187,-0.1042,0.0432,0.0365,0
3.531214,-0.1724,0.0527,2.7773,-0.1079,0.0453,0.0408,0
3.535959,-0.1628,0.0096,3.1603,-0.1103,0.0557,0.0466,0
3.539154,-0.1867,-0.0479,3.9792,-0.1108,0.0648,0.0394,0
3.542237,-0.2634,-0.0766,5.4588,-0.1191,0.0629,0.0472,0
3.546317,-0.3974,-0.2634,9.2895,-0.2340,0.1106,0.0149,0
3.549951,-6.8043,-9.6199,19.6708,-0.6011,0.5473,0.1612,0
3.552972,-8.1163,-14.1689,79.1188,-1.2265,0.2960,0.9550,0
3.555986,30.6985,-8.2983,132.3467,-1.5295,-0.4298,1.7397,0
3.558969,81.8242,5.1715,156.9016,-1.6438,-1.2057,1.2793,0
3.562677,56.1728,34.8931,156.9016,-0.7879,-2.5492,0.2955,0
3.567074,-32.8389,50.3884,141.8900,-0.2198,-1.0658,0.8063,0
3.570364,0.6895,32.6617,122.1330,-0.2025,-0.9244,0.8234,0
3.573639,43.2824,19.4984,113.9592,-0.2465,-1.5700,0.1186,0
3.578027,64.7919,20.1879,141.0712,0.1617,-1.5753,-0.4778,0
3.582294,60.3435,11.9566,147.7366,0.6813,-3.1381,-0.7083,0
3.585592,36.3536,2.5570,109.2905,0.6118,-3.6817,-0.3344,0
3.588713,27.1742,12.1434,96.2038,-0.4775,-4.1760,-0.0147,0
3.591836,27.1072,11.1713,118.3071,-0.9814,-4.3777,-0.1655,0
3.594938,2.8730,-0.4166,140.1661,-1.0027,-4.2637,0.0626,0
3.599134,-1.8914,-4.0654,140.0943,-0.7256,-4.1901,0.5604,0
3.602727,18.8232,12.5839,107.8013,-0.9630,-4.0060,0.0975,0
3.606038,15.7969,15.1074,95.2701,-1.3182,-3.4131,-0.1495,0
3.609208,-11.1905,14.1354,96.8742,-1.5788,-2.1679,0.0855,0
3.613916,4.6160,12.1721,99.7233,-1.3142,-1.6236,-0.0650,0
3.617562,16.2854,20.7482,92.1097,-0.9084,-0.9699,-0.6241,0
3.620819,5.7700,23.0753,79.3822,-0.4535,-0.3064,-0.8122,0
3.624140,-11.0133,21.6963,68.8812,-0.1236,-0.1018,-0.6571,0
3.627230,-1.3168,19.4313,56.0052,0.2108,0.1100,-0.5604,0
3.630520,1.9201,13.0388,50.5272,0.5556,0.8593,-0.4839,0
3.634945,12.1194,10.4291,42.6407,0.8303,0.6744,-0.5969,0
3.638209,8.2121,9.8210,37.6033,1.0349,0.6619,-0.4325,0
3.641301,9.2751,12.3493,28.3665,1.0936,0.6917,-0.3182,0
3.645580,11.8274,7.8386,23.1232,1.1485,0.4871,-0.3179,0
3.649377,6.7612,4.8076,22.2421,1.2422,0.4767,-0.2204,0
3.652527,3.4189,6.1675,18.9621,1.3014,0.3365,-0.1218,0
3.655758,6.3015,7.2161,13.9438,1.3233,0.2489,-0.0322,0
3.658907,5.1763,5.5785,11.0612,1.2963,0.2555,0.0312,0
3.662000,5.7844,2.0830,10.3477,1.2393,0.1167,0.1559,0
3.666178,7.2544,0.4501,8.5569,1.1724,-0.1175,0.2990,0
3.670226,6.2968,2.3415,6.4548,1.1090,-0.2134,0.3088,0
3.673382,3.5769,1.9632,5.8802,1.0635,-0.2332,0.3619,0
3.676550,4.8315,1.9058,5.4157,0.9998,-0.3464,0.4125,0
3.681077,6.7325,1.1205,4.7740,0.9585,-0.4178,0.3797,0
3.684473,4.2856,0.9242,3.7445,0.9238,-0.4842,0.3672,0
3.687531,3.4860,1.7478,3.0215,0.8692,-0.5508,0.3952,0
3.690999,4.1803,1.5706,2.7438,0.8202,-0.5689,0.3802,0
3.693986,3.2130,-0.1628,3.1651,0.7738,-0.5761,0.3413,0
3.697218,0.8906,-1.3743,2.9832,0.7075,-0.5772,0.3040,0
3.701666,0.7949,-0.5363,1.1349,0.6217,-0.5444,0.3235,0
3.704979,1.6520,-0.9194,0.5315,0.5377,-0.5457,0.3211,0
3.708038,1.6137,-2.5857,1.1349,0.4650,-0.5481,0.3030,0
3.712654,-0.7087,-2.9784,0.9529,0.3754,-0.5452,0.3477,0
3.716151,0.1053,-2.3703,0.0383,0.2931,-0.5473,0.3826,0
3.719289,0.9194,-2.3032,0.0622,0.2284,-0.5431,0.3837,0
3.722330,0.0383,-2.7102,0.3496,0.1681,-0.5497,0.3965,0
3.725934,-0.6895,-2.7007,0.3639,0.1029,-0.5433,0.4357,0
3.729959,-0.0431,-1.7717,-0.1676,0.0128,-0.5172,0.4303,0
3.734896,-0.8906,-2.1787,0.2251,-0.0288,-0.4964,0.4469,0
3.738089,-0.9577,-2.2936,0.4693,-0.0634,-0.4815,0.4572,0
3.741295,-0.2729,-1.5945,0.2682,-0.1119,-0.4591,0.4509,0
3.746330,-0.6512,-1.2594,0.2682,-0.1537,-0.4234,0.4431,0
3.750156,-0.7757,-1.2641,0.5746,-0.1815,-0.4117,0.4490,0
3.753229,-0.0670,-1.1444,0.4405,-0.2006,-0.3901,0.4343,0
3.756559,-0.1724,-0.9816,0.3783,-0.2158,-0.3810,0.4285,0
3.759548,-0.7087,-0.9720,0.3687,-0.2350,-0.3624,0.4295,0
3.763037,-0.6033,-0.9912,0.2777,-0.2715,-0.3392,0.4311,0
3.767596,-0.2729,-1.2641,0.2969,-0.2809,-0.3160,0.4170,0
3.770900,-0.8811,-1.2402,0.4453,-0.3075,-0.2960,0.4173,0
3.774040,-0.9577,-0.9960,0.2346,-0.3320,-0.2723,0.4245,0
3.778258,-0.3735,-0.9481,0.3543,-0.3533,-0.2419,0.4141,0
3.782151,-0.8045,-1.2019,0.7230,-0.3712,-0.2217,0.4135,0
3.785411,-0.9912,-1.1013,0.7183,-0.3845,-0.1966,0.4175,0
3.788971,-0.6369,-0.8763,0.5459,-0.4053,-0.1756,0.4088,0
3.791970,-0.6752,-1.0487,0.6800,-0.4218,-0.1450,0.3984,0
3.795067,-1.1827,-1.2977,0.8811,-0.4343,-0.1180,0.3941,0
3.799221,-0.9529,-1.2210,0.9002,-0.4535,-0.0821,0.3922,0
3.802589,-0.9960,-0.9529,0.7374,-0.4722,-0.0552,0.3813,0
3.805914,-1.4269,-1.0630,0.8140,-0.4916,-0.0226,0.3797,0
3.809114,-1.2833,-1.2163,0.7997,-0.5180,0.0237,0.3746,0
3.813658,-1.0247,-1.0870,0.6752,-0.5401,0.0557,0.3557,0
3.817140,-1.5179,-1.0247,0.7518,-0.5540,0.0938,0.3573,0
3.820263,-1.5562,-0.9481,0.9098,-0.5729,0.1351,0.3592,0
3.823555,-1.1109,-0.9098,1.1588,-0.5793,0.1636,0.3560,0
3.826655,-1.3551,-0.8332,1.3455,-0.6019,0.2161,0.3467,0
3.830328,-1.7430,-0.7518,1.5419,-0.6179,0.2793,0.3445,0
3.835087,-1.6089,-0.5698,1.6855,-0.6233,0.3429,0.3432,0
3.838340,-1.7047,-0.6752,1.9824,-0.6408,0.3981,0.3371,0
3.841762,-2.0159,-0.7135,2.2505,-0.6491,0.4796,0.3381,0
3.846312,-1.9968,-0.4118,2.2697,-0.6686,0.5718,0.3227,0
3.850182,-2.0063,-0.6321,2.5762,-0.6792,0.6315,0.3155,0
3.853267,-2.1165,-0.6800,2.9161,-0.6877,0.6997,0.3086,0
3.856790,-2.1117,-0.4980,3.2896,-0.6912,0.7754,0.2998,0
3.859785,-2.0686,-0.2586,3.7637,-0.7011,0.8521,0.2883,0
3.863260,-2.4373,-0.0766,4.4963,-0.7064,0.9324,0.2827,0
3.867424,-2.6480,0.3208,5.7748,-0.6864,1.0168,0.2838,0
3.870698,-2.6528,0.6081,6.2680,-0.6789,1.0997,0.2625,0
3.873940,-2.7869,0.5076,6.3638,-0.6550,1.1975,0.2601,0
3.878270,-2.7581,-0.1628,6.2106,-0.6462,1.3230,0.2502,0
3.882409,-2.1069,-1.0295,5.9233,-0.6526,1.3859,0.2350,0
3.885557,-1.9585,-1.1827,5.8514,-0.6635,1.4698,0.2273,0
3.888655,-1.4988,-1.0870,5.9041,-0.6837,1.5394,0.2094,0
3.892034,-0.5124,-1.1253,6.3111,-0.6856,1.5825,0.1921,0
3.895127,-0.1341,-0.7470,6.8522,-0.6883,1.6233,0.1708,0
3.899101,0.2682,-0.1867,7.2736,-0.6853,1.6630,0.1418,0
3.902604,1.1588,0.1389,7.7045,-0.6632,1.6745,0.1186,0
3.905857,1.7238,0.4022,8.2600,-0.6366,1.6689,0.1021,0
3.908985,1.8723,0.6129,8.6143,-0.5772,1.6486,0.0914,0
3.913858,2.1787,0.9002,8.8873,-0.5335,1.6292,0.0815,0
3.917135,2.4852,1.1349,9.2177,-0.4988,1.6137,0.0701,0
3.920115,2.4565,1.2210,9.4236,-0.4378,1.5924,0.0578,0
3.923181,2.5091,1.2498,9.5289,-0.3984,1.5727,0.0552,0
3.926423,2.9544,1.4126,9.5241,-0.3160,1.5356,0.0381,0
3.931228,3.5195,1.3168,9.6534,-0.2345,1.4909,0.0258,0
3.934777,3.5817,1.3743,9.6391,-0.1711,1.4618,0.0211,0
3.938007,4.1180,1.5850,9.5912,-0.1050,1.4154,0.0088,0
3.941595,4.5777,1.5036,9.6965,-0.0216,1.3547,-0.0051,0
3.946149,4.4724,1.4078,9.7971,0.0581,1.2753,-0.0035,0
3.950103,4.8554,1.4078,9.6103,0.1069,1.2265,-0.0069,0
3.953161,4.6878,1.2641,9.4954,0.1657,1.1636,0.0016,0
3.956706,4.5442,1.0199,9.7061,0.2238,1.0736,0.0165,0
3.959772,4.9608,0.7661,9.7540,0.2846,0.9777,0.0312,0
3.963096,4.9464,0.3448,9.4858,0.3400,0.8673,0.0554,0
3.967313,3.9840,-0.1149,9.6295,0.3688,0.7941,0.0807,0
3.970621,4.1563,-0.5794,9.9407,0.4050,0.6941,0.1074,0
3.973773,4.0318,-0.8188,10.2472,0.4466,0.6035,0.1231,0
3.978290,2.8970,-0.8332,10.4962,0.4962,0.4900,0.1609,0
3.982377,2.5426,-0.8428,10.3669,0.5199,0.4112,0.1857,0
3.985527,3.1795,-1.3934,10.7452,0.5364,0.3643,0.1932,0
3.988998,3.0885,-1.8483,11.1713,0.5596,0.2904,0.1948,0
3.992138,2.7390,-1.3551,11.1235,0.5718,0.2252,0.2006,0
3.995664,3.1029,-0.8045,10.8122,0.5694,0.1442,0.1953,0
3.999793,3.5578,-1.0678,10.8793,0.5764,0.0709,0.1660,0
4.002991,3.6727,-1.3168,11.2480,0.5862,-0.0061,0.1439,0
4.006141,4.3239,-0.7853,11.0612,0.5798,-0.0874,0.1058,0
4.009835,5.5689,-0.8332,11.0038,0.5529,-0.2377,0.0099,0
4.015066,5.6216,-1.6233,11.2815,0.5383,-0.3419,-0.0562,0
4.018277,5.6647,-1.9824,11.0564,0.5164,-0.4234,-0.1039,0
4.021798,5.2768,-2.3750,10.5105,0.4618,-0.5111,-0.1911,0
4.025058,4.2808,-3.0502,10.6829,0.3904,-0.6131,-0.2545,0
4.028142,4.0510,-3.1747,11.0516,0.3307,-0.7003,-0.3083,0
4.032608,3.1556,-3.0023,11.6071,0.2577,-0.8071,-0.3595,0
4.036312,1.9585,-2.6576,11.6693,0.1953,-0.8727,-0.3754,0
4.039420,1.3120,-2.3415,11.7555,0.1460,-0.9363,-0.3635,0
4.042649,1.2258,-2.0351,11.9279,0.0978,-1.0070,-0.3304,0
4.047205,0.5124,-1.4269,12.3254,0.0813,-1.0333,-0.2958,0
4.050856,-0.0048,-0.9864,12.4259,0.0645,-1.0624,-0.2529,0
4.054006,0.7183,-0.7422,12.4738,0.0637,-1.0704,-0.2302,0
4.057609,1.4078,-0.3160,12.5265,0.0624,-1.0794,-0.2308,0
4.060627,2.3128,0.4357,13.1585,0.0831,-1.1080,-0.2225,0
4.064955,3.6344,1.9201,13.8912,0.1167,-1.1506,-0.2388,0
4.068303,3.6583,2.4900,14.1018,0.1729,-1.1884,-0.2635,0
4.071485,3.2896,2.8156,14.3077,0.2161,-1.2217,-0.2814,0
4.074713,2.9544,2.7533,13.8050,0.3080,-1.2641,-0.3107,0
4.079874,3.2178,2.1548,12.1721,0.3632,-1.2947,-0.3360,0
4.083534,2.9832,1.6424,11.3916,0.3821,-1.3041,-0.3515,0
4.086578,2.4852,1.4796,11.2432,0.4093,-1.3320,-0.3627,0
4.090179,2.1117,1.1492,11.2432,0.4271,-1.3302,-0.3669,0
4.093161,1.5993,1.0870,11.0181,0.4415,-1.3334,-0.3613,0
4.096502,0.6895,0.9481,10.7260,0.4418,-1.3219,-0.3371,0
4.100643,1.3695,-0.1580,9.9742,0.4293,-1.3129,-0.3216,0
4.103863,1.0726,-0.6656,9.6917,0.4042,-1.2969,-0.2894,0
4.106946,0.7470,-0.9194,9.1171,0.2928,-1.2582,-0.2068,0
4.115823,0.7614,-1.7621,7.6710,0.2134,-1.2398,-0.1564,0
4.120475,1.1971,-1.3264,7.2018,0.1444,-1.2212,-0.1090,0
4.123571,1.5850,-0.9912,7.2544,0.0810,-1.2145,-0.0706,0
4.126817,2.1165,-0.6321,7.5896,0.0274,-1.2188,-0.0346,0
4.131053,2.2889,-0.0287,7.9200,-0.0181,-1.2167,-0.0021,0
4.134568,1.9920,0.4262,8.2935,-0.0562,-1.2015,0.0160,0
4.138258,1.6281,0.7470,8.7340,-0.0885,-1.1916,0.0480,0
4.142737,2.0590,1.1253,9.4906,-0.0975,-1.1575,0.0648,0
4.147172,1.8723,1.7095,9.9742,-0.0991,-1.1247,0.0786,0
4.150819,1.2067,1.9776,10.3046,-0.0919,-1.0941,0.0975,0
4.153958,1.0487,2.1596,10.5584,-0.0751,-1.0437,0.1210,0
4.157153,1.1875,2.4565,10.8601,-0.0576,-0.9995,0.1364,0
4.160136,1.5467,2.8012,11.0325,-0.0301,-0.9630,0.1460,0
4.164658,2.0255,2.8922,10.9894,0.0197,-0.8988,0.1588,0
4.168348,2.6097,2.7342,10.5489,0.0400,-0.8780,0.1580,0
4.171561,3.3279,2.3128,9.9216,0.0722,-0.8623,0.1575,0
4.174838,3.7206,2.2362,9.7731,0.0829,-0.8455,0.1490,0
4.179402,3.8547,2.2984,9.9838,0.0978,-0.8162,0.1346,0
4.183339,3.5817,2.3846,10.5536,0.1034,-0.8007,0.1276,0
4.186408,2.8635,2.5714,10.9511,0.1247,-0.7493,0.0989,0
4.190014,2.3224,3.0646,11.2767,0.1324,-0.6915,0.0805,0
4.193027,2.0542,3.3567,11.6167,0.1455,-0.6195,0.0576,0
4.196388,2.2889,3.5434,12.1003,0.1687,-0.5372,0.0296,0
4.200353,2.4181,3.7350,12.6605,0.1927,-0.4565,0.0024,0
4.203627,2.3894,3.8690,12.8186,0.2212,-0.3669,-0.0224,0
4.206821,2.4900,3.7158,12.7898,0.2393,-0.2934,-0.0376,0
4.211056,2.9928,2.3990,12.0955,0.2579,-0.1895,-0.0416,0
4.215925,3.6488,1.9058,11.5496,0.2518,-0.1516,-0.0370,0
4.219042,3.7445,1.6903,11.4586,0.2388,-0.1170,-0.0203,0
4.222219,4.0749,1.1779,11.3725,0.2246,-0.1042,0.0093,0
4.225400,4.5011,0.8859,11.0612,0.2206,-0.0943,0.0298,0
4.228718,4.6591,0.7805,10.6255,0.1964,-0.0845,0.0645,0
4.232607,4.7070,0.7614,10.4914,0.1617,-0.0895,0.1029,0
4.235984,4.9321,0.6512,10.4866,0.1474,-0.0925,0.1364,0
4.239165,5.1380,0.8092,10.5967,0.1282,-0.0981,0.1681,0
4.243376,4.9081,1.0870,10.5345,0.0919,-0.0949,0.1919,0
4.247493,4.8602,1.1779,10.4052,0.0735,-0.0874,0.2073,0
4.250769,4.9943,1.1636,10.3190,0.0530,-0.0765,0.2049,0
4.253941,4.7645,1.3216,10.2089,0.0309,-0.0565,0.1879,0
4.257025,4.6112,1.3216,10.0796,0.0176,-0.0293,0.1833,0
4.259962,4.3574,1.3408,10.0413,-0.0059,-0.0085,0.1743,0
4.264039,4.1228,1.4174,9.8162,-0.0216,0.0370,0.1532,0
4.267420,3.5291,1.3838,9.6534,-0.0304,0.0810,0.1426,0
4.270616,2.8970,1.1971,9.4858,-0.0461,0.1148,0.1447,0
4.274233,2.7438,1.0008,9.2847,-0.0682,0.1860,0.1418,0
4.278945,2.3511,0.7470,9.1602,-0.0874,0.2521,0.1474,0
4.282661,2.3942,0.9337,9.0405,-0.0946,0.2875,0.1551,0
4.285773,2.6671,1.0343,8.9974,-0.0949,0.3259,0.1508,0
4.289049,2.8347,0.9912,8.9399,-0.1055,0.3560,0.1490,0
4.292018,2.7533,0.9673,8.8633,-0.1053,0.3965,0.1490,0
4.295449,2.7821,0.8284,8.6191,-0.1085,0.4530,0.1407,0
4.300232,2.5762,0.6033,8.3606,-0.1114,0.4852,0.1396,0
4.303400,2.3367,0.4022,8.1020,-0.1159,0.5177,0.1399,0
4.307004,2.2745,0.2825,7.7381,-0.1274,0.5553,0.1388,0
4.311405,2.4277,0.1820,7.4460,-0.1330,0.5945,0.1447,0
4.315347,2.4373,0.1389,7.3263,-0.1420,0.6163,0.1380,0
4.318354,2.8395,0.1484,7.2496,-0.1569,0.6307,0.1330,0
4.321699,3.0598,0.2251,7.1443,-0.1580,0.6424,0.1204,0
4.324697,3.1939,0.2538,7.1251,-0.1703,0.6550,0.1058,0
4.327918,3.3567,0.3783,7.0916,-0.1788,0.6683,0.0759,0
4.332249,3.2561,0.3687,7.2113,-0.1823,0.6760,0.0645,0
4.335428,2.9401,0.3974,7.3310,-0.1940,0.6869,0.0426,0
4.338656,2.7294,0.3304,7.3502,-0.1974,0.6949,0.0298,0
4.343150,2.6240,0.3160,7.3694,-0.2049,0.7115,0.0139,0
4.347388,2.6480,0.2203,7.2688,-0.2097,0.7245,0.0091,0
4.350560,2.6911,0.1772,7.1778,-0.2132,0.7221,0.0107,0
4.353643,2.8539,0.2011,7.1060,-0.2225,0.7232,0.0011,0
4.356802,2.9592,0.1484,7.0916,-0.2300,0.7173,-0.0032,0
4.359755,3.0263,0.0239,7.0102,-0.2318,0.7171,-0.0141,0
4.363119,3.0167,-0.0239,6.9576,-0.2414,0.7032,-0.0115,0
4.367364,2.9497,-0.0670,6.9288,-0.2542,0.6891,-0.0184,0
4.370663,3.0646,-0.0958,6.9145,-0.2670,0.6749,-0.0085,0
4.373789,2.9209,-0.1389,6.9959,-0.2694,0.6568,-0.0133,0
4.378215,2.9161,-0.2298,7.0054,-0.2942,0.6249,-0.0173,0
4.382902,2.8970,-0.2011,6.9671,-0.3027,0.6065,-0.0179,0
4.386013,2.8683,-0.2155,6.9097,-0.3227,0.5828,-0.0234,0
4.389555,2.8060,-0.2586,6.9671,-0.3368,0.5710,-0.0285,0
4.392606,2.6767,-0.3112,7.0390,-0.3544,0.5470,-0.0341,0
4.395931,2.6528,-0.3065,7.1347,-0.3778,0.5281,-0.0360,0
4.399905,2.5809,-0.2682,7.1108,-0.3933,0.5103,-0.0421,0
4.403181,2.5570,-0.3543,7.1491,-0.4090,0.4924,-0.0458,0
4.406374,2.4804,-0.3400,7.1970,-0.4255,0.4724,-0.0477,0
4.410740,2.4086,-0.3400,7.2401,-0.4570,0.4495,-0.0453,0
4.414843,2.2027,-0.3352,7.3119,-0.4687,0.4285,-0.0461,0
4.418079,2.1356,-0.4310,7.4412,-0.4871,0.4210,-0.0512,0
4.421276,1.9872,-0.3783,7.5130,-0.4999,0.4064,-0.0461,0
4.424417,1.9393,-0.3017,7.5705,-0.5177,0.3938,-0.0504,0
4.427892,1.9106,-0.3112,7.7285,-0.5271,0.3749,-0.0514,0
4.432259,1.8818,-0.1580,7.9727,-0.5332,0.3672,-0.0472,0
4.435525,1.8100,-0.0670,8.2265,-0.5415,0.3579,-0.0490,0
4.438660,1.8914,0.0622,8.4324,-0.5425,0.3461,-0.0458,0
4.443446,1.8244,0.3783,8.7771,-0.5319,0.3238,-0.0445,0
4.449991,1.8531,0.7183,9.2512,-0.5223,0.3155,-0.0442,0
4.453824,1.8866,0.9529,9.6295,-0.5028,0.3008,-0.0464,0
4.457759,1.8771,1.1827,9.9072,-0.4743,0.2878,-0.0496,0
4.460908,1.8771,1.4605,10.1801,-0.4410,0.2753,-0.0434,0
4.465521,1.8483,1.7190,10.6111,-0.4106,0.2659,-0.0410,0
4.468862,1.9058,1.8914,10.9319,-0.3661,0.2446,-0.0261,0
4.471995,2.0063,2.0590,11.1522,-0.3206,0.2212,-0.0213,0
4.475180,2.2601,2.1548,11.4108,-0.2745,0.1940,-0.0128,0
4.479733,2.6719,2.5857,11.7890,-0.2268,0.1593,-0.0067,0
4.483342,3.0885,2.8347,12.2344,-0.1796,0.1242,-0.0099,0
4.486486,3.4524,3.1412,12.5935,-0.1260,0.0909,-0.0059,0
4.489709,3.7158,3.5578,13.1394,-0.0722,0.0418,-0.0107,0
4.492681,3.9073,3.8307,13.6469,-0.0027,0.0011,-0.0128,0
4.495938,4.1228,4.3048,14.3604,0.0754,-0.0506,-0.0168,0
4.500127,4.5442,4.7597,15.2271,0.1522,-0.1058,-0.0216,0
4.503465,4.8650,5.0278,15.7826,0.2425,-0.1665,-0.0290,0
4.506512,5.2577,5.2912,16.4482,0.3384,-0.2249,-0.0405,0
4.511129,6.0190,5.6120,17.3340,0.4533,-0.3110,-0.0592,0
4.514959,6.5457,5.9759,17.8991,0.5529,-0.3901,-0.0706,0
4.518092,6.7229,6.1148,18.3204,0.6582,-0.4714,-0.0917,0
4.521225,7.0246,6.3255,18.7897,0.7306,-0.5276,-0.1074,0
4.524407,7.1874,6.4404,19.2877,0.8418,-0.6105,-0.1284,0
4.527627,7.4316,6.7086,20.0538,1.0453,-0.7578,-0.1732,0
4.534731,7.3694,6.6511,20.6284,1.1383,-0.8258,-0.1905,0
4.537974,7.3741,6.7277,20.8391,1.2327,-0.8895,-0.2049,0
4.541523,7.3310,6.5888,21.1600,1.3702,-0.9811,-0.2278,0
4.547410,6.9336,6.3255,21.3036,1.4671,-1.0459,-0.2326,0
4.551221,6.6080,6.1675,21.1456,1.5335,-1.0874,-0.2284,0
4.554571,6.1435,5.7844,20.9876,1.5916,-1.1146,-0.2198,0
4.557809,5.6168,5.4827,20.7482,1.6310,-1.1311,-0.2169,0
4.560863,4.8363,5.2050,20.2645,1.6673,-1.1322,-0.2014,0
4.565277,3.8882,4.7118,19.6181,1.6982,-1.0944,-0.1711,0
4.568885,3.1508,4.2473,19.1392,1.6958,-1.0589,-0.1508,0
4.571996,2.3320,3.7733,18.6077,1.6907,-1.0080,-0.1236,0
4.575351,1.6041,3.4285,17.9900,1.6691,-0.9153,-0.0741,0
4.580006,0.7901,3.0358,17.2287,1.6305,-0.8066,-0.0104,0
4.583693,0.1245,2.9018,16.5344,1.6009,-0.7325,0.0314,0
4.586840,-0.0622,2.7869,16.0076,1.5607,-0.6291,0.0858,0
4.590077,-0.2538,2.6671,15.5815,1.5132,-0.5281,0.1476,0
4.593058,-0.3400,2.3990,14.8776,1.4613,-0.4269,0.2081,0
4.597516,-0.1676,1.9968,14.0396,1.3915,-0.3043,0.2774,0
4.600878,0.1724,1.8387,13.1537,1.3483,-0.2358,0.3139,0
4.604045,0.5363,1.5658,12.2966,1.2899,-0.1386,0.3571,0
4.607336,0.8906,1.2641,11.5879,1.2081,-0.0426,0.3896,0
4.612534,1.2402,1.0247,10.7021,1.1293,0.0589,0.4080,0
4.616113,1.4940,1.0343,10.1370,1.0696,0.1218,0.4029,0
4.619241,1.4365,0.8236,9.8593,1.0128,0.2036,0.3973,0
4.622605,1.5275,0.8140,9.4810,0.9710,0.2537,0.3872,0
4.625720,1.4844,0.7278,9.2225,0.9241,0.3198,0.3704,0
4.629166,1.5275,0.5650,8.6814,0.8588,0.4064,0.3387,0
4.633740,1.5419,0.5267,8.3989,0.8132,0.4700,0.3128,0
4.636901,1.4796,0.4836,8.0876,0.7717,0.5257,0.2875,0
4.640291,1.3791,0.1628,7.4891,0.7194,0.5820,0.2753,0
4.645756,1.5371,-0.1484,6.8235,0.6614,0.6403,0.2582,0
4.650068,1.4844,-0.4693,6.3207,0.6185,0.6667,0.2505,0
4.653191,1.3264,-0.6321,6.0142,0.5729,0.6925,0.2558,0
4.656489,1.3838,-0.8715,5.5929,0.5375,0.7008,0.2590,0
4.659463,1.3743,-1.0630,5.2529,0.4855,0.7168,0.2665,0
4.663623,0.9481,-1.3312,4.9225,0.4258,0.7248,0.2747,0
4.667238,0.8859,-1.2498,4.7309,0.3856,0.7354,0.2886,0
4.670528,0.5411,-1.2785,4.6304,0.3355,0.7562,0.2960,0
4.673945,0.2969,-1.4365,4.4388,0.2814,0.7802,0.3091,0
4.678587,0.1915,-1.5993,3.9648,0.2188,0.8058,0.3131,0
4.682500,0.1245,-1.8340,3.6057,0.1820,0.8194,0.3152,0
4.685567,0.0718,-2.0925,3.2370,0.1250,0.8338,0.3104,0
4.688813,0.0048,-2.2553,3.0454,0.0701,0.8503,0.3184,0
4.691762,-0.1293,-2.5474,2.8299,0.0083,0.8588,0.3192,0
4.696173,-0.3496,-2.8156,2.5139,-0.0783,0.8807,0.3323,0
4.699628,-0.4980,-2.9832,2.3607,-0.1356,0.8950,0.3360,0
4.702767,-0.5794,-3.1795,2.1691,-0.2028,0.9196,0.3501,0
4.705990,-0.6895,-3.3423,2.0207,-0.2971,0.9401,0.3547,0
4.711086,-0.7997,-3.5721,1.7621,-0.4173,0.9689,0.3651,0
4.715231,-0.9720,-3.5147,1.6759,-0.4770,0.9915,0.3738,0
4.718259,-1.0582,-3.5195,1.6568,-0.5494,1.0144,0.3818,0
4.721961,-1.1013,-3.5291,1.5754,-0.6262,1.0419,0.3864,0
4.725021,-1.1205,-3.4764,1.6281,-0.6992,1.0704,0.3904,0
4.728458,-1.3455,-3.2992,2.2075,-0.7775,1.0981,0.3941,0
4.733284,0.1293,-2.8635,2.9784,-0.8306,1.1194,0.3653,0
4.736455,0.0048,-2.4181,3.0742,-0.8775,1.1461,0.3403,0
4.739977,-0.4741,-1.8579,3.6871,-0.9137,1.1730,0.3056,0
4.744475,0.7997,-1.1492,4.8937,-0.9206,1.1828,0.2388,0
4.748371,0.6416,-0.8284,5.1140,-0.9153,1.2089,0.1881,0
4.751705,0.0575,-0.2203,4.9608,-0.9102,1.2068,0.1633,0
4.755351,0.5555,0.1437,5.0709,-0.9068,1.1964,0.1444,0
4.758428,0.9002,0.1580,5.4348,-0.8729,1.1903,0.1188,0
4.762890,0.3735,0.8188,5.6982,-0.8444,1.1490,0.1098,0
4.766258,1.0247,1.4892,6.0621,-0.8047,1.1181,0.1138,0
4.769385,1.7047,2.1165,7.1491,-0.7490,1.0688,0.1092,0
4.772535,1.6759,3.3567,9.1219,-0.6600,1.0000,0.1071,0
4.777851,2.1979,4.2713,9.5385,-0.5532,0.9236,0.1047,0
4.781617,2.8874,4.5059,10.2328,-0.4655,0.8436,0.0901,0
4.784631,3.2944,4.7357,10.9798,-0.3856,0.7973,0.0698,0
4.787672,2.8970,5.4348,10.8266,-0.2673,0.6920,0.0573,0
4.791476,2.9257,5.6838,10.9463,-0.1788,0.6251,0.0450,0
4.795880,2.6384,6.1531,11.9471,-0.0581,0.5268,0.0352,0
4.799428,1.7813,6.7038,12.1865,0.0032,0.4754,0.0405,0
4.802579,1.7478,6.8378,12.1482,0.0906,0.4021,0.0578,0
4.805753,2.3415,6.4500,12.2870,0.1974,0.3224,0.0480,0
4.810989,1.6281,5.1140,11.0421,0.3118,0.2585,0.0109,0
4.815072,-0.1245,3.5338,9.2608,0.3435,0.2587,-0.0088,0
4.818094,-1.8100,2.5187,8.2025,0.3552,0.2984,-0.0394,0
4.821179,-2.3032,1.1349,7.2879,0.3560,0.3344,-0.0624,0
4.824382,-2.0973,-0.2442,6.4691,0.3296,0.3826,-0.0994,0
4.827563,-2.7916,-1.4174,5.5545,0.2899,0.4602,-0.1058,0
4.831628,-3.0885,-2.1596,5.4061,0.2380,0.4754,-0.0983,0
4.834971,-1.5850,-1.9824,4.7788,0.1919,0.5159,-0.1034,0
4.838321,-1.9968,-2.2075,4.7166,0.1175,0.5351,-0.0954,0
4.842648,-1.6472,-2.5139,5.1236,0.0333,0.5564,-0.0695,0
4.847084,-0.4501,-2.3990,4.8842,-0.0093,0.5582,-0.0879,0
4.850376,-2.2218,-2.3942,4.7118,-0.0584,0.5891,-0.0624,0
4.853631,-2.4134,-2.4325,4.5059,-0.1218,0.5998,-0.0232,0
4.857209,-0.3448,-3.1891,4.4101,-0.1777,0.6166,-0.0195,0
4.860304,-0.2682,-3.3758,4.3000,-0.2385,0.6235,-0.0115,0
4.864366,-0.9912,-2.5474,3.8834,-0.3174,0.6107,0.0298,0
4.868025,0.9050,-2.4708,4.0606,-0.3858,0.6134,0.0394,0
4.871217,0.5076,-2.9688,4.7980,-0.4167,0.5963,0.0384,0
4.874569,0.1245,-2.3798,5.2289,-0.4676,0.5633,0.0783,0
4.879280,0.3735,-1.4653,4.9608,-0.5111,0.5492,0.1045,0
4.882953,-0.0096,-1.7286,5.3870,-0.5462,0.5359,0.1370,0
4.886020,0.0814,-2.1691,6.0908,-0.5662,0.5156,0.1593,0
4.889029,-0.0670,-1.6376,5.6838,-0.5931,0.4983,0.1879,0
4.892711,-0.0383,-1.2019,5.2098,-0.6318,0.4900,0.2273,0
4.897158,0.4932,-2.0494,5.6024,-0.6813,0.4463,0.2614,0
4.900507,0.8092,-2.2553,5.6695,-0.7248,0.4154,0.2856,0
4.903631,1.1875,-2.0255,5.3295,-0.7693,0.3813,0.3006,0
4.906916,1.6759,-1.8531,4.7836,-0.8468,0.3275,0.3139,0
4.912064,2.4995,-2.9257,4.8554,-0.9185,0.2534,0.3027,0
4.915900,2.4229,-2.6240,4.7597,-0.9675,0.2052,0.2968,0
4.918965,2.7150,-2.1452,4.6064,-1.0160,0.1561,0.2960,0
4.922099,4.2090,-2.2601,4.9321,-1.0786,0.0759,0.2747,0
4.925521,4.8123,-2.5139,5.5019,-1.1309,-0.0107,0.2481,0
4.928929,5.4253,-2.1883,5.9137,-1.2923,-0.2843,0.1535,0
4.937424,6.4979,-1.6616,6.1292,-1.3539,-0.4359,0.0911,0
4.941602,6.0334,-1.3455,6.3782,-1.4123,-0.5708,0.0426,0
4.946088,4.8746,0.0958,6.0190,-1.4448,-0.6712,0.0203,0
4.949661,4.2377,0.4501,5.9951,-1.4767,-0.7623,0.0040,0
4.952770,2.2170,1.8052,5.9855,-1.5090,-0.8564,0.0442,0
4.956875,6.7516,1.0870,7.1635,-1.5194,-0.9566,0.0493,0
4.960306,7.7716,1.0343,8.5425,-1.5034,-1.0896,0.0312,0
4.963829,8.0637,3.0454,7.5417,-1.5196,-1.3206,-0.0059,0
4.968712,8.9352,1.9632,7.1682,-1.5356,-1.4408,-0.0466,0
4.971806,9.8545,1.4317,8.5090,-1.5481,-1.5756,-0.0770,0
4.975276,11.5257,1.2881,10.5489,-1.5700,-1.8378,-0.1793,0
4.979775,12.2056,2.2841,12.0859,-1.5633,-2.0600,-0.2446,0
4.983095,10.9654,4.0175,12.7180,-1.5719,-2.1791,-0.2835,0
4.986074,11.0564,4.7932,13.6278,-1.5596,-2.3188,-0.3469,0
4.989062,8.5808,5.6743,12.9766,-1.5434,-2.5247,-0.4237,0
4.992699,10.4196,4.9081,13.9343,-1.5063,-2.5085,-0.5015,0
4.997045,8.0685,3.7302,12.4594,-1.4575,-2.6508,-0.5907,0
5.000532,7.2065,1.9585,11.6262,-1.4741,-2.6755,-0.6161,0
5.003687,4.0797,-0.0048,10.4579,-1.5012,-2.6276,-0.6384,0
5.007392,1.1732,-1.1253,9.9120,-1.5596,-2.5122,-0.6142,0
5.012015,-2.4517,-1.9632,10.3908,-1.5916,-2.3998,-0.5388,0
5.015799,-2.9305,-1.3743,10.6159,-1.6065,-2.3046,-0.4437,0
5.018913,-3.7541,-1.0822,11.1043,-1.6156,-2.1035,-0.3341,0
5.022330,-5.2625,-1.1827,11.6741,-1.6134,-1.9870,-0.2068,0
5.025422,-4.9321,-1.0487,11.6741,-1.5974,-1.8117,-0.0634,0
5.029825,-4.6783,-0.1437,12.0572,-1.5721,-1.6065,0.0957,0
5.033338,-4.3048,-1.3886,12.1242,-1.5489,-1.4946,0.2046,0
5.036523,-3.5721,-1.1396,12.1194,-1.5191,-1.3494,0.3376,0
5.039790,-2.5762,0.3831,12.6414,-1.4671,-1.1663,0.4732,0
5.045203,-0.9577,1.1684,13.4698,-1.3550,-1.0160,0.6075,0
5.049160,1.0008,1.1636,13.0580,-1.2825,-0.9563,0.6600,0
5.052308,2.8778,1.9106,12.2056,-1.2105,-0.8761,0.6851,0
5.055891,3.0311,1.8052,12.4211,-1.1130,-0.7810,0.7131,0
5.059399,3.8164,1.3791,12.9670,-1.0280,-0.7338,0.7099,0
5.063398,4.4532,2.3655,13.5272,-0.9254,-0.6654,0.6760,0
5.066756,3.8116,2.3415,13.5655,-0.8314,-0.5801,0.6422,0
5.069940,3.6296,1.9249,13.4794,-0.7669,-0.5348,0.6158,0
5.073132,3.9504,1.4988,13.4267,-0.6400,-0.4056,0.5558,0
5.078503,3.9983,1.3216,13.7523,-0.5319,-0.2750,0.4948,0
5.082322,3.7637,1.3264,13.8481,-0.4423,-0.1865,0.4498,0
5.085461,3.7397,0.8619,13.5081,-0.3834,-0.1263,0.4128,0
5.088654,3.4764,0.2251,13.0484,-0.3128,-0.0266,0.3840,0
5.091799,3.4141,-0.1915,12.7994,-0.2667,0.0738,0.3419,0
5.095349,3.1029,-1.0822,13.2735,-0.2025,0.1924,0.3046,0
5.099792,3.0215,-1.2163,13.2016,-0.1452,0.2859,0.2880,0
5.102959,3.1987,-1.1205,13.0915,-0.1079,0.3821,0.2593,0
5.106288,3.0885,-1.1923,13.1633,-0.0384,0.4852,0.2465,0
5.111641,4.0270,-1.0918,13.7571,0.0328,0.5753,0.2212,0
5.115364,4.2904,-1.0391,14.2263,0.0957,0.6510,0.1988,0
5.118425,4.4532,-0.7230,14.7243,0.1703,0.7197,0.1679,0
5.122075,4.4245,-0.5650,15.1745,0.2470,0.7866,0.1287,0
5.125134,4.3718,-0.2825,15.4570,0.3067,0.8399,0.1015,0
5.128429,3.7541,-0.1293,15.7251,0.4021,0.9390,0.0597,0
5.132515,3.5099,-0.2059,16.0028,0.4820,1.0227,0.0381,0
5.135858,4.0031,0.1772,16.1273,0.5646,1.0896,0.0075,0
5.138999,4.1276,0.0622,15.8257,0.6480,1.1490,-0.0064,0
5.143446,5.0757,-0.2634,15.0308,0.7445,1.1908,-0.0341,0
5.147532,5.2768,-0.8332,14.0588,0.8047,1.2148,-0.0528,0
5.150903,4.6064,-1.3599,13.6517,0.8511,1.2353,-0.0581,0
5.154371,4.0318,-2.3846,12.9861,0.8753,1.2540,-0.0637,0
5.157542,3.8259,-2.5235,12.5456,0.8868,1.2710,-0.0608,0
5.161513,3.0694,-2.8395,12.0476,0.8985,1.2926,-0.0253,0
5.165951,2.6719,-2.7054,11.6215,0.8988,1.3083,0.0083,0
5.169672,2.5618,-2.6001,11.4347,0.8996,1.3115,0.0349,0
5.173116,2.4134,-2.6624,11.4395,0.9052,1.3163,0.0640,0
5.178606,2.4517,-2.3990,11.1570,0.9126,1.3241,0.0938,0
5.182193,2.8252,-2.1596,10.8936,0.9190,1.3137,0.0986,0
5.185347,3.0215,-1.9297,10.7883,0.9244,1.2974,0.1031,0
5.188730,2.8970,-1.8435,10.8409,0.9345,1.2851,0.0983,0
5.191806,3.0742,-1.5706,10.9128,0.9337,1.2756,0.0938,0
5.195354,2.8060,-1.3743,10.8505,0.9427,1.2422,0.0653,0
5.200246,2.5522,-1.1301,10.9080,0.9435,1.2295,0.0421,0
5.203500,2.2410,-1.1157,10.9942,0.9499,1.2092,0.0211,0
5.206873,1.9201,-0.8092,11.0181,0.9441,1.1962,-0.0112,0
5.211572,1.8483,-0.5890,11.0133,0.9401,1.1724,-0.0504,0
5.215344,1.6328,-0.6656,11.0133,0.9398,1.1628,-0.0733,0
5.218397,1.6616,-0.6943,10.9750,0.9353,1.1471,-0.1055,0
5.221983,1.6807,-0.5363,10.7021,0.9217,1.1253,-0.1364,0
5.225046,1.7047,-0.4597,10.3382,0.9126,1.0992,-0.1703,0
5.229572,1.4844,-0.4788,10.2376,0.8900,1.0664,-0.2017,0
5.232906,1.3408,-0.2538,10.1083,0.8740,1.0301,-0.2220,0
5.236092,1.0151,-0.0670,9.9647,0.8585,1.0040,-0.2300,0
5.239444,0.7422,0.0192,9.8019,0.8343,0.9537,-0.2334,0
5.244882,0.7757,0.0718,9.5624,0.8042,0.9001,-0.2273,0
5.248560,0.8188,0.1867,9.3757,0.7967,0.8607,-0.2190,0
5.251620,0.9290,0.1532,9.2847,0.7613,0.8005,-0.2062,0
5.255258,1.0295,0.0958,9.2177,0.7482,0.7626,-0.2046,0
5.258278,1.1253,-0.0048,9.0501,0.7197,0.7005,-0.2030,0
5.262104,1.1827,0.0383,8.6670,0.6638,0.6145,-0.2182,0
5.267423,0.9864,0.3065,8.3510,0.6257,0.5777,-0.2238,0
5.270834,1.0870,0.2394,8.2839,0.5971,0.5399,-0.2332,0
5.273886,1.1349,0.1437,8.1594,0.5697,0.4975,-0.2513,0
5.276861,1.0678,0.2011,7.9009,0.5489,0.4703,-0.2555,0
5.279968,1.0534,0.3112,7.5705,0.5097,0.4175,-0.2723,0
5.284997,1.1636,0.2394,7.3071,0.4575,0.3776,-0.2918,0
5.288342,0.8811,0.2251,7.2592,0.4218,0.3472,-0.2998,0
5.291328,0.7087,0.2634,7.1970,0.3826,0.3235,-0.3144,0
5.294609,0.4597,0.4741,7.1443,0.3264,0.2955,-0.3214,0
5.299495,0.1006,0.5411,7.3310,0.2766,0.2633,-0.3198,0
5.302957,-0.8045,0.4357,7.4460,0.2478,0.2601,-0.3123,0
5.306046,-1.3408,0.3352,7.4412,0.1940,0.2587,-0.2731,0
5.310203,-1.9441,0.4501,7.3789,0.1276,0.2486,-0.2097,0
5.315029,-2.0016,0.1628,7.4268,0.0965,0.2478,-0.1665,0
5.318088,-1.8914,0.0431,7.3454,0.0666,0.2289,-0.1037,0
5.321125,-1.4126,0.1820,7.1587,0.0344,0.2094,-0.0629,0
5.324631,-1.0295,0.1867,6.9815,-0.0112,0.1721,0.0083,0
5.329024,-0.7087,-0.0431,7.0820,-0.0624,0.1303,0.0613,0
5.332540,-0.3160,0.1389,7.1778,-0.0914,0.1156,0.0826,0
5.335632,-0.0335,0.4166,7.4316,-0.1412,0.0917,0.0935,0
5.338946,0.1532,0.6704,7.7764,-0.1977,0.0530,0.0930,0
5.344627,0.6129,1.2306,8.3558,-0.2340,0.0258,0.0807,0
5.348442,0.8859,1.6089,8.6335,-0.2507,-0.0040,0.0746,0
5.351482,1.1636,1.9154,8.7915,-0.2643,-0.0352,0.0679,0
5.354597,1.4748,2.0111,8.9208,-0.2745,-0.0762,0.0655,0
5.357773,1.5658,1.9968,9.0836,-0.2718,-0.1132,0.0626,0
5.360900,1.6376,1.8387,9.1267,-0.2785,-0.2038,0.0706,0
5.366081,1.6855,1.4796,9.1889,-0.2832,-0.2617,0.0845,0
5.369385,2.0016,1.2258,9.2368,-0.2942,-0.3272,0.0874,0
5.372450,2.2889,1.0056,9.1937,-0.3048,-0.3952,0.0983,0
5.377181,2.6959,0.8715,9.2129,-0.3211,-0.5012,0.1069,0
5.381026,2.9688,0.6895,9.2225,-0.3315,-0.5585,0.1082,0
5.384263,3.0311,0.5315,9.3230,-0.3408,-0.6281,0.1098,0
5.387316,2.7773,0.4262,9.4667,-0.3499,-0.6912,0.1058,0
5.390530,2.5235,0.2825,9.6103,-0.3629,-0.7330,0.1106,0
5.393624,2.3128,0.2729,9.6726,-0.3754,-0.8084,0.1106,0
5.398594,2.1308,0.0862,9.7827,-0.3770,-0.8482,0.1140,0
5.401931,2.0494,0.0287,9.8402,-0.3832,-0.8719,0.1063,0
5.404992,1.8771,-0.0766,9.8881,-0.3813,-0.8980,0.1053,0
5.409411,1.5467,-0.2346,9.8928,-0.3888,-0.9212,0.1061,0
5.413652,1.5467,-0.2825,9.9407,-0.3898,-0.9371,0.1031,0
5.416927,1.5371,-0.3160,9.9120,-0.3818,-0.9310,0.1018,0
5.419994,1.4844,-0.4501,9.8785,-0.3816,-0.9329,0.0997,0
5.423207,1.6185,-0.3448,9.9695,-0.3776,-0.9308,0.0943,0
5.426670,2.1069,-0.3639,10.0796,-0.3714,-0.9270,0.0839,0
5.430822,2.3032,-0.3783,10.3094,-0.3629,-0.9214,0.0663,0
5.433961,2.3032,-0.3496,10.3765,-0.3563,-0.9188,0.0618,0
5.437031,2.4134,-0.2011,10.3765,-0.3440,-0.9076,0.0440,0
5.440843,2.5379,0.1053,10.5776,-0.3150,-0.8942,0.0242,0
5.446481,2.9066,0.5794,10.7069,-0.2928,-0.8865,0.0131,0
5.449737,3.0358,0.8284,10.7164,-0.2590,-0.8873,0.0013,0
5.452891,3.1125,1.0008,10.6159,-0.2364,-0.8855,-0.0075,0
5.456087,3.0646,1.0199,10.6303,-0.1911,-0.8849,-0.0152,0
5.459121,2.9880,1.0247,10.5776,-0.1601,-0.8871,-0.0141,0
5.463081,2.7869,0.9481,10.3382,-0.1053,-0.8745,-0.0147,0
5.467183,2.3942,0.7709,10.2089,-0.0743,-0.8639,-0.0059,0
5.470746,2.2410,0.4980,10.0269,-0.0400,-0.8439,0.0064,0
5.474507,2.1500,0.0192,9.8881,-0.0131,-0.8162,0.0264,0
5.479862,2.2075,-0.2729,9.6869,0.0000,-0.7901,0.0386,0
5.483137,2.3607,-0.4932,9.5720,-0.0003,-0.7701,0.0477,0
5.486226,2.4325,-0.5555,9.4619,0.0069,-0.7472,0.0472,0
5.489647,2.4660,-0.5890,9.3853,-0.0013,-0.7216,0.0552,0
5.492717,2.6911,-0.6560,9.2847,-0.0011,-0.7051,0.0594,0
5.496951,2.8874,-0.5459,9.2273,-0.0080,-0.6734,0.0722,0
5.500645,2.8826,-0.5602,9.2129,-0.0131,-0.6675,0.0799,0
5.503824,2.8874,-0.5028,9.2464,-0.0187,-0.6510,0.1029,0
5.507149,3.0598,-0.5076,9.3565,-0.0205,-0.6472,0.1351,0
5.511620,3.0167,-0.5459,9.1554,-0.0338,-0.6448,0.1665,0
5.515486,2.8299,-0.7853,9.0405,-0.0493,-0.6331,0.1857,0
5.518537,2.6288,-0.8954,8.9543,-0.0685,-0.6137,0.2038,0
5.521612,2.3750,-0.8523,8.7867,-0.0831,-0.5774,0.2046,0
5.524769,2.1452,-0.7135,8.5281,-0.1031,-0.5436,0.2030,0
5.528030,2.5762,-0.7374,8.3414,-0.1284,-0.4703,0.1711,0
5.532089,2.8874,-1.0151,8.3989,-0.1503,-0.4191,0.1415,0
5.535440,3.1460,-1.1540,8.3318,-0.1777,-0.3717,0.0994,0
5.538561,3.2417,-1.1492,8.3175,-0.1985,-0.3368,0.0618,0
5.542614,2.9832,-1.2785,8.3845,-0.2345,-0.2577,0.0035,0
5.546654,2.2027,-1.1444,8.5760,-0.2555,-0.2086,-0.0211,0
5.549936,1.5945,-0.9337,8.6957,-0.2686,-0.1657,-0.0293,0
5.552939,1.2737,-0.8332,8.7293,-0.2798,-0.0989,-0.0309,0
5.556141,0.6033,-0.8380,8.8921,-0.2840,-0.0570,-0.0237,0
5.559263,0.2969,-0.9529,8.9639,-0.2835,0.0112,-0.0043,0
5.563149,0.2586,-0.8045,9.1506,-0.2867,0.1087,0.0195,0
5.567807,0.3017,-0.8523,9.3853,-0.2990,0.1833,0.0416,0
5.571180,0.3879,-0.9098,9.5960,-0.2998,0.2483,0.0568,0
5.574995,0.6704,-1.0151,9.9359,-0.3072,0.3624,0.0759,0
5.580479,0.7661,-1.1396,10.1849,-0.3112,0.4122,0.0970,0
5.584029,0.9768,-1.3551,10.2759,-0.3251,0.4684,0.1082,0
5.587619,1.1636,-1.5179,10.5105,-0.3275,0.5185,0.1159,0
5.590918,1.2498,-1.7142,10.7164,-0.3392,0.5582,0.1207,0
5.594081,1.3216,-1.8627,10.9559,-0.3443,0.6185,0.1303,0
5.598450,1.3503,-1.9728,11.2097,-0.3576,0.6651,0.1287,0
5.601743,1.3791,-2.0207,11.4491,-0.3621,0.7157,0.1338,0
5.604949,1.3743,-2.1165,11.6119,-0.3717,0.7578,0.1300,0
5.609260,1.4796,-2.1404,11.9183,-0.3709,0.8218,0.1199,0
5.613495,1.7286,-2.1261,12.1386,-0.3784,0.8588,0.1140,0
5.616720,1.8340,-2.1548,12.3158,-0.3728,0.8817,0.1053,0
5.619813,2.0686,-2.1548,12.4259,-0.3712,0.9030,0.0978,0
5.623326,2.3080,-2.1404,12.5025,-0.3685,0.9292,0.0847,0
5.626501,2.3655,-2.1308,12.6222,-0.3621,0.9379,0.0791,0
5.630667,2.5953,-2.1452,12.6366,-0.3539,0.9379,0.0650,0
5.633871,2.7198,-2.1452,12.6031,-0.3499,0.9305,0.0557,0
5.637014,2.8395,-2.0399,12.6893,-0.3429,0.9260,0.0418,0
5.640654,2.9449,-1.8962,12.5648,-0.3275,0.9028,0.0362,0
5.645855,3.0406,-1.8244,12.5839,-0.3232,0.8823,0.0328,0
5.649293,3.0502,-1.7957,12.6462,-0.3096,0.8601,0.0242,0
5.652393,3.0837,-1.5897,12.6893,-0.2979,0.8340,0.0234,0
5.656120,3.1364,-1.4461,12.6510,-0.2840,0.8015,0.0221,0
5.659227,3.2561,-1.3072,12.6510,-0.2675,0.7517,0.0229,0
5.664611,3.3423,-1.1779,12.5313,-0.2422,0.7096,0.0226,0
5.668098,3.5626,-0.9673,12.3828,-0.2238,0.6683,0.0261,0
5.671969,3.5530,-0.8906,12.2870,-0.2038,0.6158,0.0133,0
5.676640,3.5721,-0.7901,11.9423,-0.1831,0.5540,-0.0059,0
5.682428,3.5530,-0.8045,11.4251,-0.1569,0.4868,-0.0171,0
5.686296,3.6488,-0.7183,11.1235,-0.1527,0.4282,-0.0266,0
5.690569,3.6440,-0.6800,10.8170,-0.1364,0.3821,-0.0362,0
5.694396,3.5578,-0.5363,10.4244,-0.1319,0.3246,-0.0560,0
5.698681,3.4477,-0.6033,10.0365,-0.1290,0.2755,-0.0610,0
5.701995,3.3902,-0.4549,9.7492,-0.1242,0.2334,-0.0706,0
5.705129,3.2561,-0.4932,9.4858,-0.1244,0.1924,-0.0767,0
5.709635,3.0646,-0.3687,8.9543,-0.1236,0.1156,-0.0871,0
5.714580,2.8778,-0.3783,8.7867,-0.1239,0.0885,-0.0861,0
5.717664,2.8347,-0.3591,8.5521,-0.1284,0.0509,-0.0885,0
5.720722,2.7629,-0.3160,8.3127,-0.1346,0.0176,-0.0882,0
5.724259,2.6240,-0.2969,8.1211,-0.1428,-0.0250,-0.0837,0
5.728015,2.6432,-0.2873,7.7955,-0.1444,-0.0735,-0.0805,0
5.732583,2.6671,-0.3017,7.6758,-0.1569,-0.1140,-0.0767,0
5.735695,2.7629,-0.3352,7.5226,-0.1612,-0.1572,-0.0687,0
5.738991,2.7725,-0.3160,7.1970,-0.1721,-0.2078,-0.0629,0
5.744593,2.9592,-0.4214,6.9863,-0.1911,-0.2715,-0.0546,0
5.748130,3.0119,-0.3879,6.8378,-0.2054,-0.3147,-0.0472,0
5.751228,3.0789,-0.4836,6.7804,-0.2108,-0.3589,-0.0410,0
5.754388,3.1747,-0.4932,6.6655,-0.2273,-0.4114,-0.0360,0
5.757554,3.3375,-0.5028,6.6607,-0.2417,-0.4567,-0.0277,0
5.760732,3.3375,-0.5267,6.5984,-0.2843,-0.6211,-0.0192,0
5.770279,3.6392,-0.5171,6.5553,-0.3027,-0.6957,-0.0189,0
5.775106,3.6105,-0.5650,6.5410,-0.3328,-0.8007,-0.0144,0
5.781045,3.7254,-0.5602,6.5266,-0.3459,-0.8559,-0.0187,0
5.784597,3.7445,-0.7135,6.5793,-0.3653,-0.9217,-0.0213,0
5.787964,3.8068,-0.7039,6.5362,-0.3749,-0.9790,-0.0157,0
5.791483,3.8451,-0.6991,6.6319,-0.3965,-1.0496,-0.0171,0
5.794829,3.8690,-0.8140,6.6367,-0.4109,-1.1210,-0.0147,0
5.798921,3.8882,-0.8571,6.6367,-0.4314,-1.1860,-0.0171,0
5.802228,3.8882,-0.9337,6.6319,-0.4351,-1.2281,-0.0152,0
5.805368,3.8834,-0.9960,6.6990,-0.4546,-1.2889,-0.0213,0
5.809476,3.8930,-1.0295,6.7181,-0.4767,-1.3776,-0.0211,0
5.813496,3.9840,-1.0630,6.7995,-0.4842,-1.4232,-0.0203,0
5.816674,3.9265,-1.1109,6.8235,-0.5039,-1.4906,-0.0181,0
5.819722,3.8499,-1.0534,6.9623,-0.5071,-1.5388,-0.0216,0
5.823261,3.7733,-1.0534,7.0390,-0.5156,-1.5732,-0.0189,0
5.826608,3.7350,-1.0582,7.1539,-0.5252,-1.6491,-0.0192,0
5.830787,3.6248,-0.9912,7.2784,-0.5337,-1.6806,-0.0112,0
5.833931,3.5530,-1.0104,7.5034,-0.5345,-1.7219,-0.0125,0
5.837028,3.4907,-0.8763,7.7093,-0.5353,-1.7587,-0.0048,0
5.840645,3.3088,-0.8667,8.0349,-0.5287,-1.7917,0.0048,0
5.846114,3.0646,-0.8475,8.2744,-0.5231,-1.8181,0.0075,0
5.849352,2.9688,-0.9146,8.3366,-0.5145,-1.8213,0.0187,0
5.852450,2.8060,-1.0822,8.5281,-0.5004,-1.8258,0.0314,0
5.855875,2.6911,-1.0199,8.6335,-0.4938,-1.8386,0.0461,0
5.858962,2.4277,-1.0534,8.8346,-0.4783,-1.8282,0.0698,0
5.863902,2.2027,-1.0822,9.1315,-0.4487,-1.8197,0.1055,0
5.867517,1.9824,-1.1396,9.2799,-0.4205,-1.7968,0.1343,0
5.870903,1.8387,-1.2546,9.4810,-0.3949,-1.7800,0.1636,0
5.874939,1.7957,-1.3647,9.8114,-0.3488,-1.7301,0.2129,0
5.879718,1.7861,-1.5323,9.9742,-0.3158,-1.6915,0.2374,0
5.882900,1.6281,-1.5706,10.1801,-0.2947,-1.6595,0.2550,0
5.886488,1.4844,-1.7621,10.4339,-0.2561,-1.5820,0.2801,0
5.889681,1.4748,-1.9297,10.6398,-0.2324,-1.5260,0.2936,0
5.892836,1.3791,-2.1021,10.8505,-0.2036,-1.4261,0.3027,0
5.896850,1.4030,-2.2553,11.0421,-0.1793,-1.3630,0.3123,0
5.899975,1.6568,-2.3846,11.0564,-0.1609,-1.2734,0.3155,0
5.903076,1.8866,-2.3798,11.0229,-0.1370,-1.1900,0.3086,0
5.906535,2.2936,-2.4804,10.9511,-0.1071,-1.0781,0.2942,0
5.910954,2.7533,-2.5522,10.7548,-0.0882,-1.0035,0.2790,0
5.914699,3.0502,-2.4900,10.5967,-0.0653,-0.9297,0.2609,0
5.917798,3.0023,-2.5762,10.4627,-0.0498,-0.8577,0.2446,0
5.921339,3.0215,-2.5570,10.4387,-0.0317,-0.7842,0.2204,0
5.924342,2.9544,-2.5379,10.3669,-0.0168,-0.7256,0.2001,0
5.928582,2.6815,-2.4373,10.3908,0.0043,-0.6235,0.1716,0
5.931941,2.4995,-2.4277,10.5345,0.0203,-0.5425,0.1495,0
5.935065,2.3703,-2.4325,10.6303,0.0317,-0.4557,0.1255,0
5.938399,2.2745,-2.2841,10.6925,0.0589,-0.3395,0.1026,0
5.943809,2.2601,-2.1165,10.6877,0.0805,-0.2129,0.0706,0
5.947694,2.3511,-2.0399,10.6063,0.0922,-0.1450,0.0490,0
5.950813,2.3846,-2.0830,10.4674,0.1042,-0.0570,0.0250,0
5.954293,2.6767,-2.0351,10.1275,0.1138,0.0088,0.0035,0
5.957411,3.2753,-2.1308,9.6822,0.1071,0.0730,-0.0269,0
5.961920,3.2657,-2.4038,9.4284,0.1047,0.1484,-0.0661,0
5.965372,3.2657,-2.2745,9.2368,0.1029,0.1927,-0.0935,0
5.968606,3.3088,-2.2218,9.0214,0.0938,0.2403,-0.1223,0
5.972674,3.2034,-2.1835,8.9112,0.0711,0.2974,-0.1564,0
5.977050,3.3375,-2.1069,8.7101,0.0597,0.3408,-0.1775,0
5.981043,3.2705,-1.8771,8.6143,0.0445,0.3752,-0.1905,0
5.984057,3.0263,-1.7909,8.6479,0.0338,0.3930,-0.2017,0
5.987498,2.8922,-1.6855,8.6670,0.0216,0.4186,-0.2094,0
5.990581,2.8970,-1.4988,8.6000,0.0155,0.4383,-0.2137,0
5.994526,2.5235,-1.1061,8.7197,0.0107,0.4775,-0.2086,0
5.999177,2.2362,-0.8715,8.9208,0.0189,0.4991,-0.2001,0
6.002396,2.2362,-0.7566,9.0980,0.0248,0.5119,-0.1985,0
6.005903,2.1548,-0.6560,9.1267,0.0349,0.5484,-0.1812,0
6.010387,1.9393,-0.5219,9.2320,0.0440,0.5577,-0.1625,0
6.014343,1.8483,-0.5267,9.4763,0.0581,0.5681,-0.1431,0
6.017393,1.8196,-0.5219,9.6103,0.0719,0.5742,-0.1223,0
6.020557,1.6185,-0.4980,9.7683,0.0853,0.5836,-0.1013,0
6.023660,1.6424,-0.3926,9.9599,0.1100,0.5931,-0.0663,0
6.026931,1.6999,-0.3256,10.2376,0.1303,0.5868,-0.0341,0
6.031119,1.9297,-0.1389,10.5058,0.1593,0.5801,0.0021,0
6.034379,2.0925,-0.0239,10.7069,0.1849,0.5780,0.0258,0
6.037505,2.1069,0.0814,10.7835,0.2228,0.5574,0.0573,0
6.041619,2.2793,0.1724,10.9798,0.2742,0.5303,0.1013,0
6.045941,2.2458,0.2825,11.1187,0.3091,0.5145,0.1263,0
6.049093,2.0734,0.3831,11.2623,0.3445,0.4962,0.1474,0
6.052123,1.9776,0.4453,11.3342,0.3776,0.4756,0.1761,0
6.055445,1.8675,0.4405,11.3820,0.4135,0.4671,0.1964,0
6.058490,1.7142,0.5602,11.4682,0.4535,0.4482,0.2169,0
6.062819,1.9489,0.6656,11.4826,0.5068,0.4367,0.2395,0
6.066496,2.2649,0.6991,11.4634,0.5340,0.4303,0.2473,0
6.069622,2.4804,0.7374,11.3533,0.5724,0.4114,0.2467,0
6.072646,2.7007,0.8236,11.3868,0.6030,0.3925,0.2411,0
6.076868,2.7294,0.9098,11.1761,0.6606,0.3688,0.2129,0
6.083636,2.7102,0.8140,10.8649,0.6819,0.3504,0.1985,0
6.086945,2.7390,0.8092,10.5728,0.7005,0.3445,0.1777,0
6.090217,2.6528,0.7230,10.2903,0.7059,0.3341,0.1689,0
6.093336,2.7438,0.7470,10.1514,0.7171,0.3142,0.1338,0
6.098379,2.9209,0.6704,9.8928,0.7181,0.3062,0.0997,0
6.101711,2.9640,0.6943,9.6822,0.7088,0.2982,0.0706,0
6.104789,3.0933,0.7087,9.5241,0.6925,0.2864,0.0306,0
6.109212,3.1987,0.6943,9.4140,0.6728,0.2793,-0.0221,0
6.113372,3.1795,0.7757,9.3182,0.6566,0.2739,-0.0685,0
6.116611,3.1077,0.8428,9.2608,0.6323,0.2667,-0.1100,0
6.119634,2.4612,0.8667,9.4427,0.6115,0.2678,-0.1340,0
6.122889,2.5522,0.9194,9.4236,0.5913,0.2638,-0.1641,0
6.126014,2.6384,0.8236,9.1842,0.5654,0.2627,-0.1945,0
6.131044,2.7629,1.0678,8.9735,0.5353,0.2518,-0.2204,0
6.134366,3.5243,0.8954,8.5138,0.5183,0.2459,-0.2411,0
6.137552,3.7541,1.0822,7.9152,0.4719,0.2555,-0.2670,0
6.141636,3.9887,1.2689,7.5800,0.4069,0.3339,-0.3360,0
6.145785,2.6193,1.0439,8.3653,0.3741,0.4088,-0.3691,0
6.148954,1.1540,1.0918,9.0501,0.3464,0.4509,-0.3760,0
6.151988,0.7518,1.3264,9.3901,0.3182,0.4751,-0.3605,0
6.155426,0.7997,1.2354,9.5672,0.2872,0.5124,-0.3520,0
6.158467,0.6943,1.1396,9.5193,0.2590,0.5497,-0.3216,0
6.163718,-0.2538,0.9194,9.6438,0.2209,0.6238,-0.2934,0
6.167016,0.0575,1.0582,9.9264,0.1921,0.6960,-0.2702,0
6.170108,0.4980,1.1061,10.0173,0.1625,0.7432,-0.2427,0
6.174782,2.0111,1.4317,10.6494,0.1428,0.8066,-0.2052,0
6.179163,1.6089,2.2745,12.2870,0.1468,0.8402,-0.1751,0
6.182662,0.8380,2.6336,13.5943,0.1753,0.8985,-0.1412,0
6.186490,0.5555,3.4237,14.6717,0.2217,0.9457,-0.1162,0
6.189860,0.1628,3.4333,15.8448,0.2814,1.0272,-0.0845,0
6.193069,-0.6273,3.0167,16.7450,0.3933,1.1418,-0.0288,0
6.198429,-0.8763,2.8922,17.1233,0.4612,1.2481,-0.0061,0
6.201698,-1.7669,2.7581,17.6740,0.5097,1.3424,0.0077,0
6.204761,-3.2322,2.5331,18.8280,0.5817,1.4941,0.0205,0
6.209390,-4.0079,2.2553,19.3595,0.7003,1.7437,0.0405,0
6.213491,-2.5762,2.1404,19.1345,0.7618,1.8999,0.0613,0
6.216783,-1.2258,1.6712,19.2159,0.8276,2.0299,0.0624,0
6.220083,-0.5459,0.9433,18.8855,0.8865,2.1048,0.0965,0
6.223352,0.1149,0.3112,17.6261,0.9465,2.1197,0.1412,0
6.226595,2.0207,0.9050,15.6341,0.9808,2.1762,0.1788,0
6.230746,1.2450,0.9242,14.9590,0.9819,2.2553,0.2110,0
6.233944,0.0144,0.5842,13.6757,0.9907,2.3036,0.2497,0
6.237088,0.5219,1.1636,13.4363,0.9755,2.4192,0.3019,0
6.240792,0.0958,2.2984,11.9662,0.9619,2.6177,0.3240,0
6.246076,1.1636,2.6911,11.9950,0.9499,2.7480,0.3200,0
6.249317,1.1061,1.8962,13.4171,0.9483,2.8432,0.3083,0
6.252690,1.4222,2.1069,14.2455,0.9606,2.9284,0.2918,0
6.255815,1.3886,2.0399,14.4801,0.9766,2.9806,0.2758,0
6.258873,0.7422,1.6089,14.5089,0.9939,3.0478,0.2547,0
6.263205,0.6177,1.1349,14.2216,1.0171,3.1011,0.2579,0
6.267565,0.6752,0.8667,14.0157,1.0256,3.1144,0.2542,0
6.270699,0.1772,0.9529,13.9055,1.0456,3.1072,0.2718,0
6.274021,-0.4262,0.6656,13.8433,1.0512,3.0910,0.3014,0
6.278722,-0.2059,0.0287,13.6565,1.0661,3.0513,0.3291,0
6.282389,-0.5650,-0.3304,13.2304,1.0778,3.0156,0.3408,0
6.285611,-0.9385,-0.4597,12.5696,1.0792,2.9495,0.3736,0
6.288853,-0.9002,-0.3879,12.3301,1.0949,2.8791,0.4024,0
6.291855,-1.0726,-0.6608,12.4259,1.1093,2.7856,0.4290,0
6.296320,-0.4357,-0.4549,12.3014,1.1554,2.6545,0.4349,0
6.299651,-0.1963,-0.2251,11.8705,1.1868,2.5780,0.4354,0
6.302850,-0.7757,-0.0575,11.4970,1.2271,2.4776,0.4517,0
6.306057,-0.2107,-0.0479,11.0995,1.2942,2.3182,0.4527,0
6.311276,-0.0718,-0.0239,10.9176,1.3398,2.2324,0.4461,0
6.314972,-0.4118,0.0527,10.5824,1.3851,2.1618,0.4458,0
6.318073,-0.4645,0.1149,10.1993,1.4080,2.1152,0.4394,0
6.321534,-0.3591,0.1820,9.8162,1.4189,2.0912,0.4167,0
6.324537,-0.6369,0.1006,9.5433,1.4194,2.0843,0.3880,0
6.327854,-1.5419,0.0862,9.4379,1.4040,2.1162,0.3563,0
6.332143,-1.4126,0.4453,9.1459,1.3715,2.1504,0.3139,0
6.335472,-1.4078,0.7661,9.1363,1.3390,2.1925,0.2774,0
6.338502,-1.9968,0.8092,9.2416,1.2987,2.2572,0.2382,0
6.342079,-1.9297,1.2833,9.4954,1.2151,2.3752,0.1807,0
6.346871,-2.0830,1.7095,9.6822,1.1604,2.4573,0.1431,0
6.349911,-2.2122,1.8196,9.7827,1.1175,2.4954,0.1290,0
6.352930,-1.6041,1.7717,9.9647,1.0501,2.5604,0.1063,0
6.355907,-0.9481,1.9249,9.8162,0.9827,2.6161,0.0802,0
6.361268,-0.8954,1.9728,9.6486,0.8753,2.6718,0.0602,0
6.364742,-0.6081,1.8723,9.5241,0.8244,2.7006,0.0650,0
6.367817,-0.2969,1.7142,9.5241,0.7517,2.7374,0.0512,0
6.370977,-0.3879,1.4940,9.2991,0.6773,2.7827,0.0328,0
6.375273,-0.6033,1.6855,9.6151,0.6198,2.8344,0.0203,0
6.379263,-0.0862,1.7765,11.8369,0.4791,2.9098,0.0064,0
6.382564,0.0144,1.9106,9.9695,0.4279,3.0955,-0.0131,0
6.385863,-0.5602,1.8435,7.4699,0.3520,3.1344,-0.0360,0
6.389035,-0.2394,1.8340,8.2073,0.2742,3.1461,-0.0338,0
6.392102,-0.3112,1.6376,7.0102,0.1759,3.1157,-0.0421,0
6.397003,0.2442,0.9720,7.1970,0.1207,3.0649,-0.0381,0
6.401377,0.4980,1.0534,7.0485,0.0877,2.9409,-0.0416,0
6.404808,0.4070,1.0008,6.2010,0.0674,2.8320,-0.0373,0
6.408727,0.0048,0.9768,6.4452,0.0413,2.6793,-0.0232,0
6.412907,0.5219,0.7949,7.1922,0.0288,2.5439,-0.0229,0
6.416170,0.6273,0.7278,7.6471,0.0112,2.4333,-0.0131,0
6.419429,0.5171,0.8140,8.2313,-0.0029,2.3417,-0.0096,0
6.422623,0.8906,0.5459,8.7149,-0.0139,2.2449,-0.0053,0
6.425683,0.9720,0.0718,8.8873,-0.0304,2.1288,0.0021,0
6.429785,1.0199,-0.4214,8.6335,-0.0482,1.9673,0.0083,0
6.433474,0.5363,-0.9098,8.4515,-0.0648,1.8445,0.0213,0
6.436722,0.5746,-1.4126,8.7724,-0.0821,1.7453,0.0274,0
6.439915,0.5411,-1.7909,9.1985,-0.0951,1.5681,0.0397,0
6.444785,0.2011,-2.0399,9.6199,-0.1098,1.4597,0.0472,0
6.448303,0.2155,-2.0351,9.4475,-0.1276,1.3539,0.0445,0
6.451375,0.3304,-2.2793,9.4092,-0.1442,1.2732,0.0408,0
6.454676,0.3304,-2.5666,9.2081,-0.1636,1.1676,0.0370,0
6.457814,-0.0479,-2.4421,9.1411,-0.2020,1.0541,0.0408,0
6.462446,-0.4357,-2.5043,9.2608,-0.2329,0.9326,0.0346,0
6.465851,-0.5746,-2.5809,9.2703,-0.2641,0.8388,0.0360,0
6.468972,-0.9720,-2.5139,9.3518,-0.2971,0.7421,0.0320,0
6.472376,-1.2019,-2.4134,9.3661,-0.3472,0.6315,0.0362,0
6.477513,-1.5275,-2.3942,9.9790,-0.4101,0.5337,0.0248,0
6.481229,-1.8675,-2.5809,10.7164,-0.4599,0.4751,0.0232,0
6.484372,-2.2314,-2.5426,11.2240,-0.5087,0.4319,0.0234,0
6.488082,-2.6001,-2.4756,11.7555,-0.5516,0.3874,0.0229,0
6.491272,-2.9018,-2.6719,12.5887,-0.5953,0.3469,0.0232,0
6.495704,-3.2034,-2.6097,13.3501,-0.6230,0.3144,0.0242,0
6.499100,-3.4620,-2.6001,13.9726,-0.6406,0.3006,0.0368,0
6.502262,-3.6057,-2.6145,14.1976,-0.6651,0.2635,0.0480,0
6.505603,-3.4477,-2.4995,14.7052,-0.6683,0.2038,0.0682,0
6.510910,-3.2609,-2.4421,14.8393,-0.6638,0.1348,0.0970,0
6.514702,-2.9401,-2.1500,14.6765,-0.6574,0.0863,0.1087,0
6.517850,-2.5522,-2.0399,14.5855,-0.6536,0.0274,0.1202,0
6.521206,-2.2458,-1.9585,14.4322,-0.6451,-0.0448,0.1290,0
6.524247,-1.8579,-1.6903,14.2407,-0.6480,-0.1127,0.1298,0
6.527689,-1.5562,-1.3743,14.0157,-0.6467,-0.2070,0.1324,0
6.532633,-1.1253,-1.1157,13.9295,-0.6568,-0.2872,0.1234,0
6.535834,-1.0295,-0.8906,13.9151,-0.6702,-0.3661,0.1135,0
6.539165,-0.9529,-0.7853,13.8481,-0.6781,-0.4615,0.0927,0
6.543701,-0.8332,-0.5507,13.9438,-0.6949,-0.5580,0.0743,0
6.547563,-0.7901,-0.4645,14.0252,-0.7088,-0.6203,0.0608,0
6.550617,-0.7853,-0.3879,14.0923,-0.7280,-0.6957,0.0450,0
6.554232,-0.8380,-0.3496,14.3556,-0.7373,-0.7562,0.0258,0
6.557440,-0.8284,-0.3112,14.4131,-0.7469,-0.8220,0.0173,0
6.561573,-0.9481,-0.2586,14.6429,-0.7520,-0.8844,0.0021,0
6.565120,-0.9912,-0.3783,14.8010,-0.7536,-0.9209,-0.0005,0
6.568347,-1.0678,-0.2825,14.9829,-0.7474,-0.9675,-0.0075,0
6.571848,-1.2546,-0.2969,15.2271,-0.7376,-1.0134,-0.0120,0
6.576480,-1.4509,-0.3735,15.4330,-0.7200,-1.0560,-0.0077,0
6.580369,-1.5036,-0.3400,15.6198,-0.6936,-1.0848,-0.0003,0
6.583392,-1.6472,-0.3208,15.7922,-0.6696,-1.1058,0.0056,0
6.586913,-1.7526,-0.3879,15.8831,-0.6387,-1.1271,0.0136,0
6.590013,-1.7957,-0.3448,15.9454,-0.6089,-1.1362,0.0229,0
6.597480,-1.8627,-0.2682,15.9023,-0.5276,-1.1634,0.0560,0
6.601913,-1.9824,-0.1867,15.8161,-0.4882,-1.1554,0.0693,0
6.605390,-2.0494,-0.2298,15.8065,-0.4351,-1.1564,0.0863,0
6.610740,-2.0638,-0.1484,15.6868,-0.3837,-1.1501,0.1100,0
6.614544,-2.1500,-0.2107,15.6533,-0.3528,-1.1474,0.1228,0
6.617590,-2.1931,-0.2011,15.5575,-0.3062,-1.1325,0.1423,0
6.620959,-2.1979,-0.2538,15.5623,-0.2611,-1.1223,0.1585,0
6.624032,-2.2075,-0.2394,15.5384,-0.2174,-1.1032,0.1812,0
6.627638,-2.2027,-0.2059,15.4426,-0.1577,-1.0792,0.2009,0
6.632432,-2.1452,-0.2394,15.4187,-0.1047,-1.0483,0.2193,0
6.635597,-2.2027,-0.2203,15.3660,-0.0560,-1.0232,0.2297,0
6.638724,-2.1069,-0.2155,15.2271,0.0053,-0.9832,0.2486,0
6.643788,-1.9776,-0.1915,14.9159,0.0669,-0.9387,0.2595,0
6.647801,-1.7957,-0.1532,14.6573,0.1074,-0.8924,0.2675,0
6.651176,-1.7190,-0.1676,14.4801,0.1529,-0.8540,0.2649,0
6.654700,-1.6233,-0.1293,14.2982,0.1916,-0.8116,0.2643,0
6.657999,-1.5802,-0.1484,14.2024,0.2398,-0.7775,0.2502,0
6.663593,-1.3120,-0.1437,14.0492,0.2955,-0.7354,0.2393,0
6.668104,-1.2689,-0.1724,13.7523,0.3419,-0.7091,0.2244,0
6.671735,-1.2833,-0.2298,13.6996,0.3800,-0.6893,0.2081,0
6.677046,-1.1013,-0.2059,13.3836,0.4367,-0.6659,0.1974,0
6.681067,-1.1588,-0.2394,13.1394,0.4842,-0.6550,0.1820,0
6.685181,-1.1588,-0.2011,13.0292,0.5276,-0.6494,0.1708,0
6.688882,-1.1588,-0.2825,12.8664,0.5569,-0.6462,0.1585,0
6.692308,-1.0582,-0.2682,12.6749,0.5961,-0.6480,0.1423,0
6.696109,-1.1684,-0.1772,12.4163,0.6400,-0.6480,0.1343,0
6.701025,-1.1492,-0.2729,12.3158,0.6789,-0.6488,0.1276,0
6.705031,-1.1157,-0.2251,12.1530,0.7202,-0.6510,0.1178,0
6.709032,-1.2977,-0.2251,11.9088,0.7714,-0.6651,0.1114,0
6.714982,-1.2594,-0.2825,11.8034,0.8015,-0.6749,0.1095,0
6.718601,-1.2163,-0.2586,11.7316,0.8383,-0.6843,0.1100,0
6.721904,-1.2833,-0.3974,11.6502,0.8692,-0.6939,0.1154,0
6.725823,-1.2929,-0.4597,11.5353,0.9166,-0.7075,0.1180,0
6.730692,-1.3024,-0.5076,11.4826,0.9529,-0.7035,0.1332,0
6.734984,-1.4030,-0.4788,11.3629,1.0014,-0.7226,0.1396,0
6.738864,-1.3886,-0.5650,11.3342,1.0523,-0.7365,0.1548,0
6.744139,-1.3168,-0.5411,11.2336,1.1056,-0.7520,0.1708,0
6.748346,-1.3408,-0.4788,11.1474,1.1397,-0.7629,0.1815,0
6.751581,-1.2641,-0.4597,10.9894,1.1631,-0.7725,0.1889,0
6.754729,-1.2498,-0.4453,10.8457,1.1962,-0.7874,0.1927,0
6.758831,-1.3120,-0.3543,10.7212,1.2343,-0.7879,0.2086,0
6.763901,-1.1779,-0.3352,10.5153,1.2508,-0.7893,0.2068,0
6.767645,-1.1732,-0.2729,10.3430,1.2713,-0.7890,0.2161,0
6.771031,-1.1779,-0.1820,10.1323,1.2921,-0.7866,0.2182,0
6.777217,-1.1636,-0.1532,9.7971,1.2995,-0.7789,0.2230,0
6.781043,-1.1349,0.0096,9.6534,1.3038,-0.7839,0.2193,0
6.784324,-1.1013,-0.0335,9.5098,1.3097,-0.7821,0.2142,0
6.787777,-1.0582,0.0287,9.4092,1.3059,-0.7866,0.2172,0
6.791011,-1.0678,-0.0335,9.2273,1.3091,-0.7893,0.2097,0
6.796043,-1.1013,-0.0383,9.0309,1.3051,-0.8045,0.2102,0
6.800528,-1.1684,-0.0479,8.9208,1.2971,-0.8167,0.2102,0
6.804837,-1.1540,-0.0192,8.7628,1.2945,-0.8356,0.2102,0
6.809963,-1.1779,0.0718,8.5425,1.2865,-0.8553,0.2129,0
6.814752,-1.3647,0.0192,8.4563,1.2750,-0.8799,0.2217,0
6.818046,-1.4126,-0.0431,8.4228,1.2694,-0.8921,0.2284,0
6.821201,-1.4796,0.0192,8.4036,1.2633,-0.9089,0.2395,0
6.824671,-1.5179,-0.0527,8.4659,1.2534,-0.9270,0.2539,0
6.830717,-1.6999,-0.0575,8.5138,1.2481,-0.9422,0.2713,0
6.834670,-1.8675,-0.0575,8.5425,1.2388,-0.9446,0.2864,0
6.838618,-1.9776,-0.0670,8.6239,1.2385,-0.9569,0.3246,0
6.844911,-2.0925,-0.1437,8.7053,1.2409,-0.9630,0.3507,0
6.848795,-2.1452,-0.1389,8.6622,1.2361,-0.9707,0.3667,0
6.852034,-2.2505,-0.1053,8.6143,1.2369,-0.9630,0.3960,0
6.855480,-2.2984,-0.1724,8.5904,1.2340,-0.9606,0.4181,0
6.858630,-2.2410,-0.1820,8.5042,1.2324,-0.9582,0.4389,0
6.862108,-2.3272,-0.1389,8.3558,1.2343,-0.9518,0.4804,0
6.867083,-2.2649,-0.1053,8.1307,1.2303,-0.9348,0.5143,0
6.870927,-2.1979,-0.0239,7.9344,1.2313,-0.9246,0.5308,0
6.874518,-2.1404,-0.0862,7.7812,1.2236,-0.9044,0.5790,0
6.879760,-1.9920,-0.0096,7.5178,1.2212,-0.8887,0.6001,0
6.883500,-1.9297,0.0239,7.3167,1.2095,-0.8724,0.6217,0
6.886681,-1.8340,0.1053,7.1922,1.2015,-0.8564,0.6384,0
6.890457,-1.8100,0.1197,6.9767,1.1826,-0.8471,0.6622,0
6.894551,-1.7334,0.1676,6.9288,1.1652,-0.8218,0.6811,0
6.900414,-1.7142,0.1532,6.9097,1.1519,-0.8063,0.7048,0
6.903774,-1.7669,0.2155,6.8570,1.1373,-0.7815,0.7131,0
6.907373,-1.7238,0.2538,6.7756,1.1178,-0.7639,0.7264,0
6.912502,-1.7526,0.3496,6.7086,1.0970,-0.7469,0.7413,0
6.916056,-1.7382,0.3496,6.6607,1.0845,-0.7301,0.7496,0
6.919319,-1.7142,0.2777,6.6702,1.0664,-0.7080,0.7546,0
6.922471,-1.7334,0.3831,6.6415,1.0461,-0.6797,0.7663,0
6.928529,-1.7765,0.3591,6.6367,1.0182,-0.6494,0.7767,0
6.932524,-1.7813,0.3160,6.6367,1.0011,-0.6169,0.7863,0
6.935944,-1.7286,0.3112,6.6607,0.9838,-0.5966,0.7949,0
6.940282,-1.7382,0.3208,6.6463,0.9630,-0.5721,0.8084,0
6.946481,-1.7334,0.3831,6.6511,0.9457,-0.5542,0.8156,0
6.950070,-1.7717,0.3687,6.6798,0.9268,-0.5420,0.8250,0
6.953798,-1.8148,0.4645,6.6798,0.9113,-0.5351,0.8311,0
6.956968,-1.7142,0.4501,6.6750,0.8972,-0.5244,0.8356,0
6.960303,-1.7430,0.5650,6.6655,0.8700,-0.5185,0.8418,0
6.965562,-1.7238,0.5555,6.5553,0.8511,-0.5047,0.8471,0
6.969404,-1.6855,0.6512,6.4452,0.8282,-0.4975,0.8474,0
6.972612,-1.6616,0.6991,6.3638,0.8037,-0.4866,0.8479,0
6.977527,-1.5706,0.6847,6.2393,0.7658,-0.4660,0.8511,0
6.981510,-1.5323,0.6943,6.2106,0.7408,-0.4503,0.8487,0
6.984776,-1.5179,0.7183,6.1196,0.7125,-0.4423,0.8513,0
6.987886,-1.4078,0.7709,6.1196,0.6917,-0.4287,0.8516,0
6.992001,-1.3791,0.8045,5.9424,0.6488,-0.4048,0.8511,0
6.997063,-1.2977,0.7422,5.9041,0.6139,-0.3888,0.8479,0
7.001014,-1.3072,0.7805,5.8227,0.5937,-0.3730,0.8503,0
7.004985,-1.2641,0.8236,5.7078,0.5524,-0.3539,0.8489,0
7.010848,-1.1779,0.8523,5.6838,0.5183,-0.3301,0.8548,0
7.014911,-1.2210,0.7949,5.6168,0.4927,-0.3176,0.8505,0
7.018307,-1.1684,0.8140,5.5354,0.4788,-0.2998,0.8540,0
7.021601,-1.1636,0.7997,5.5067,0.4471,-0.2867,0.8567,0
7.024691,-1.1827,0.7805,5.4731,0.4285,-0.2715,0.8612,0
7.028258,-1.2306,0.7949,5.5306,0.4021,-0.2435,0.8676,0
7.032927,-1.3408,0.7087,5.6024,0.3680,-0.2241,0.8689,0
7.036587,-1.3408,0.7757,5.6312,0.3605,-0.2068,0.8804,0
7.039869,-1.3934,0.7805,5.6743,0.3219,-0.1793,0.8847,0
7.045630,-1.4844,0.7757,5.8179,0.2966,-0.1498,0.8985,0
7.049406,-1.5275,0.7805,5.9137,0.2830,-0.1367,0.9038,0
7.052771,-1.5850,0.7422,5.9472,0.2713,-0.1258,0.9081,0
7.056305,-1.5658,0.8045,6.0094,0.2467,-0.0983,0.9188,0
7.061747,-1.6855,0.8188,6.1052,0.2222,-0.0679,0.9260,0
7.065917,-1.7142,0.8284,6.1962,0.1879,-0.0421,0.9395,0
7.069484,-1.7669,0.8092,6.2249,0.1764,-0.0245,0.9446,0
7.073271,-1.7621,0.8954,6.2489,0.1484,0.0067,0.9497,0
7.078701,-1.6568,0.9290,6.2201,0.1263,0.0317,0.9646,0
7.082615,-1.6328,0.9673,6.1723,0.1074,0.0472,0.9670,0
7.085966,-1.5993,0.9673,6.1387,0.0989,0.0663,0.9747,0
7.089179,-1.6185,0.9529,6.0813,0.0677,0.0810,0.9848,0
7.093173,-1.4892,1.0104,5.9041,0.0485,0.1023,0.9931,0
7.098703,-1.4269,1.0391,5.8514,0.0131,0.1274,1.0064,0
7.103344,-1.4126,1.0918,5.7652,-0.0091,0.1426,1.0208,0
7.107514,-1.3360,1.1109,5.7940,-0.0352,0.1665,1.0416,0
7.112968,-1.4700,1.1061,5.7509,-0.0501,0.1825,1.0539,0
7.116781,-1.4988,1.1732,5.7844,-0.0618,0.1937,1.0648,0
7.120059,-1.4174,1.1779,5.7557,-0.0818,0.2116,1.0861,0
7.123411,-1.4988,1.1732,5.8083,-0.0919,0.2294,1.1000,0
7.129116,-1.4653,1.1636,5.9041,-0.1175,0.2606,1.1271,0
7.133593,-1.4030,1.2306,5.9568,-0.1340,0.2862,1.1517,0
7.137560,-1.3743,1.1684,6.0430,-0.1399,0.3131,1.1687,0
7.142859,-1.3312,1.2354,6.0765,-0.1556,0.3363,1.1911,0
7.147453,-1.3360,1.2402,6.1148,-0.1716,0.3619,1.2127,0
7.151066,-1.2115,1.2785,6.1339,-0.1735,0.3826,1.2271,0
7.154642,-1.1061,1.3264,6.1387,-0.1791,0.3904,1.2414,0
7.157844,-1.0487,1.3168,6.1339,-0.1889,0.4101,1.2481,0
7.161771,-0.9625,1.3791,6.1244,-0.2036,0.4330,1.2612,0
7.166582,-0.7709,1.4174,6.1531,-0.2094,0.4498,1.2625,0
7.170299,-0.7326,1.4174,6.1100,-0.2246,0.4767,1.2641,0
7.173573,-0.6033,1.4413,6.1292,-0.2380,0.4940,1.2644,0
7.178542,-0.5076,1.3934,6.1866,-0.2505,0.5212,1.2670,0
7.182509,-0.4405,1.4317,6.1723,-0.2531,0.5321,1.2638,0
7.185964,-0.4405,1.4700,6.3159,-0.2603,0.5489,1.2601,0
7.189116,-0.4166,1.4748,6.4308,-0.2641,0.5606,1.2489,0
7.192949,-0.4166,1.4748,6.5122,-0.2785,0.5724,1.2452,0
7.197756,-0.4070,1.5658,6.5601,-0.2902,0.5830,1.2372,0
7.201479,-0.4357,1.5993,6.5362,-0.2960,0.5950,1.2268,0
7.205231,-0.4549,1.6424,6.6272,-0.3171,0.6193,1.2201,0
7.211150,-0.4022,1.7478,6.6080,-0.3211,0.6419,1.2119,0
7.214961,-0.3735,1.7382,6.6272,-0.3283,0.6622,1.2095,0
7.218176,-0.4310,1.7286,6.7229,-0.3365,0.6821,1.2124,0
7.221385,-0.4693,1.7573,6.7277,-0.3389,0.6995,1.2095,0
7.225082,-0.4932,1.7095,6.8618,-0.3485,0.7410,1.2105,0
7.230893,-0.5411,1.6807,6.9097,-0.3451,0.7671,1.2191,0
7.234807,-0.5555,1.6233,6.9623,-0.3461,0.7853,1.2236,0
7.238194,-0.5890,1.5897,7.0198,-0.3480,0.8183,1.2308,0
7.243147,-0.5986,1.6089,7.1443,-0.3523,0.8367,1.2377,0
7.247015,-0.5794,1.6233,7.2640,-0.3448,0.8617,1.2441,0
7.250227,-0.6943,1.5275,7.3502,-0.3445,0.8865,1.2502,0
7.253428,-0.7853,1.5658,7.4029,-0.3381,0.9102,1.2558,0
7.256768,-0.7230,1.5754,7.6279,-0.3472,0.9348,1.2617,0
7.260721,-0.8332,1.5275,7.8578,-0.3405,0.9838,1.2732,0
7.266472,-0.9481,1.5275,8.0493,-0.3357,1.0104,1.2785,0
7.269911,-1.0151,1.5802,8.1020,-0.3344,1.0435,1.2883,0
7.273577,-0.9864,1.5419,8.2265,-0.3325,1.0882,1.2945,0
7.278645,-0.9864,1.5754,8.2600,-0.3206,1.1162,1.2934,0
7.282296,-0.9337,1.5706,8.3175,-0.3238,1.1445,1.2990,0
7.285504,-0.8092,1.6281,8.2504,-0.3192,1.1708,1.3051,0
7.288622,-0.7901,1.5754,8.2169,-0.3142,1.1959,1.3065,0
7.292640,-0.7087,1.6376,8.1307,-0.3043,1.2321,1.3107,0
7.297672,-0.5602,1.6807,8.1547,-0.2998,1.2537,1.3174,0
7.301439,-0.5794,1.5993,8.1116,-0.2974,1.2740,1.3211,0
7.304827,-0.5602,1.5993,8.1355,-0.2888,1.3011,1.3233,0
7.310815,-0.4932,1.5897,8.2504,-0.2686,1.3272,1.3320,0
7.314578,-0.5602,1.5371,8.2983,-0.2577,1.3408,1.3438,0
7.318090,-0.5076,1.6137,8.3893,-0.2529,1.3579,1.3510,0
7.321317,-0.5794,1.5419,8.4659,-0.2470,1.3819,1.3507,0
7.324657,-0.5219,1.5754,8.5808,-0.2268,1.4008,1.3555,0
7.330505,-0.5315,1.5323,8.6814,-0.2190,1.4224,1.3614,0
7.334393,-0.5267,1.4940,8.7197,-0.2158,1.4269,1.3648,0
7.337679,-0.5459,1.5467,8.8155,-0.2084,1.4466,1.3670,0
7.342640,-0.5315,1.5897,8.7963,-0.1953,1.4565,1.3670,0
7.346877,-0.5363,1.5658,8.7388,-0.1865,1.4719,1.3640,0
7.350261,-0.5363,1.5562,8.8298,-0.1892,1.4877,1.3624,0
7.353701,-0.5076,1.5706,8.9064,-0.1879,1.4911,1.3624,0
7.356825,-0.4884,1.5897,8.8921,-0.1839,1.5063,1.3571,0
7.360074,-0.5267,1.5802,8.9352,-0.1759,1.5090,1.3539,0
7.364993,-0.5315,1.6137,8.9687,-0.1777,1.5151,1.3528,0
7.368926,-0.5267,1.6712,8.8633,-0.1828,1.5223,1.3435,0
7.372390,-0.5028,1.7095,8.8825,-0.1876,1.5282,1.3472,0
7.376574,-0.5411,1.6759,8.7436,-0.1990,1.5420,1.3419,0
7.382309,-0.5267,1.6568,8.7245,-0.2012,1.5410,1.3390,0
7.385612,-0.5171,1.6185,8.6670,-0.2110,1.5444,1.3382,0
7.388933,-0.5555,1.6568,8.6910,-0.2188,1.5601,1.3448,0
7.392812,-0.5315,1.5610,8.7005,-0.2284,1.5687,1.3520,0
7.397847,-0.6273,1.5562,8.6957,-0.2441,1.5764,1.3619,0
7.401619,-0.6991,1.5371,8.7436,-0.2502,1.5841,1.3667,0
7.404940,-0.7997,1.5514,8.8394,-0.2558,1.5892,1.3768,0
7.410015,-0.7422,1.5275,8.9878,-0.2697,1.5982,1.3880,0
7.413980,-0.7997,1.4748,8.9639,-0.2785,1.6041,1.3933,0
7.417217,-0.7949,1.4030,9.0261,-0.2854,1.6049,1.4061,0
7.420403,-0.8092,1.4509,9.0932,-0.2960,1.6161,1.4099,0
7.423785,-0.6991,1.4892,9.0357,-0.3142,1.6174,1.4117,0
7.429285,-0.6608,1.4030,9.0261,-0.3387,1.6302,1.4138,0
7.433246,-0.5602,1.4940,9.0597,-0.3568,1.6302,1.4099,0
7.436561,-0.5986,1.4222,9.1123,-0.3752,1.6345,1.4146,0
7.440687,-0.5842,1.4892,9.1889,-0.4029,1.6353,1.4091,0
7.446843,-0.4884,1.4413,9.1842,-0.4218,1.6441,1.4021,0
7.450221,-0.4645,1.5036,9.2608,-0.4394,1.6358,1.4035,0
7.453763,-0.5028,1.5323,9.2751,-0.4588,1.6350,1.3997,0
7.456886,-0.4884,1.5323,9.2799,-0.4743,1.6310,1.3909,0
7.460344,-0.4549,1.5371,9.2991,-0.4978,1.6278,1.3867,0
7.465307,-0.4357,1.5993,9.3565,-0.5247,1.6281,1.3744,0
7.469003,-0.3974,1.6089,9.4140,-0.5409,1.6313,1.3773,0
7.472174,-0.4597,1.6520,9.4858,-0.5561,1.6204,1.3752,0
7.477281,-0.4214,1.6185,9.4906,-0.5854,1.6153,1.3731,0
7.481261,-0.3735,1.5993,9.5577,-0.6078,1.6102,1.3624,0
7.484525,-0.3735,1.6328,9.6007,-0.6209,1.6025,1.3590,0
7.487616,-0.2682,1.6664,9.6726,-0.6486,1.5982,1.3622,0
7.491646,-0.2969,1.6807,9.6917,-0.6702,1.5812,1.3550,0
7.497544,-0.3017,1.5754,9.8210,-0.6891,1.5681,1.3544,0
7.501250,-0.2298,1.6616,9.8976,-0.7096,1.5583,1.3536,0
7.504619,-0.1484,1.7095,9.9455,-0.7488,1.5076,1.3478,0
7.515297,-0.1867,1.7430,10.1418,-0.7781,1.4778,1.3438,0
7.521225,-0.1245,1.7909,10.1801,-0.7946,1.4466,1.3400,0
7.525855,-0.1484,1.8435,10.2376,-0.8151,1.4088,1.3390,0
7.530938,-0.1676,1.8435,10.2663,-0.8351,1.3912,1.3451,0
7.534719,-0.1963,1.8483,10.3238,-0.8431,1.3664,1.3464,0
7.538059,-0.2394,1.8818,10.4244,-0.8631,1.3331,1.3470,0
7.543088,-0.3400,1.8866,10.4004,-0.8751,1.3078,1.3558,0
7.546914,-0.3926,1.8818,10.4627,-0.8889,1.2867,1.3662,0
7.550117,-0.3639,1.8100,10.5345,-0.8982,1.2649,1.3800,0
7.553327,-0.4405,1.8148,10.4866,-0.9001,1.2367,1.3931,0
7.556725,-0.3783,1.8531,10.5728,-0.9057,1.2063,1.4107,0
7.562347,-0.4022,1.8196,10.6255,-0.9148,1.1730,1.4397,0
7.566328,-0.5650,1.7957,10.5919,-0.9220,1.1375,1.4650,0
7.569691,-0.6033,1.7861,10.6973,-0.9236,1.1037,1.4871,0
7.573864,-0.6752,1.7621,10.8505,-0.9281,1.0592,1.5223,0
7.579547,-0.7566,1.7238,10.9798,-0.9220,1.0312,1.5442,0
7.582835,-0.6847,1.6999,11.0325,-0.9217,1.0062,1.5671,0
7.585993,-0.7661,1.7190,11.1139,-0.9286,0.9875,1.5894,0
7.589504,-0.8140,1.7382,11.1043,-0.9257,0.9497,1.6289,0
7.593792,-0.7614,1.6664,11.0756,-0.9278,0.9174,1.6641,0
7.599613,-0.6800,1.6855,11.0852,-0.9276,0.8903,1.6835,0
7.603045,-0.6273,1.7190,11.0660,-0.9254,0.8655,1.7091,0
7.606667,-0.5650,1.6951,11.0516,-0.9276,0.8279,1.7312,0
7.611714,-0.4980,1.6999,11.0133,-0.9273,0.7855,1.7547,0
7.615743,-0.3687,1.6903,11.0564,-0.9257,0.7576,1.7648,0
7.619048,-0.2969,1.7286,10.9990,-0.9289,0.7357,1.7741,0
7.622232,-0.2298,1.7909,10.9463,-0.9310,0.6885,1.7794,0
7.626177,-0.0814,1.8004,10.9223,-0.9326,0.6398,1.7837,0
7.631257,0.0048,1.8196,10.8170,-0.9409,0.6014,1.7808,0
7.635087,0.0910,1.9010,10.6877,-0.9430,0.5569,1.7861,0
7.638532,0.1484,1.9010,10.6829,-0.9465,0.5004,1.7733,0
7.644033,0.2777,1.9154,10.5201,-0.9579,0.4501,1.7690,0
7.647868,0.3496,1.9585,10.4244,-0.9563,0.4112,1.7629,0
7.651059,0.3831,1.9106,10.3621,-0.9617,0.3773,1.7573,0
7.654316,0.4022,1.8723,10.4148,-0.9625,0.3208,1.7520,0
7.658247,0.3879,1.9441,10.3382,-0.9646,0.2665,1.7453,0
7.663052,0.4549,1.9441,10.2807,-0.9625,0.2081,1.7355,0
7.667301,0.4262,1.9201,10.1658,-0.9553,0.1721,1.7312,0
7.670817,0.3256,1.9776,10.2328,-0.9555,0.1199,1.7224,0
7.676591,0.3352,2.0159,10.1993,-0.9494,0.0706,1.7155,0
7.680808,0.2538,1.9489,10.0987,-0.9449,0.0171,1.7062,0
7.684173,0.2107,1.9680,10.1418,-0.9377,-0.0104,1.7046,0
7.687474,0.2729,1.9872,10.1754,-0.9332,-0.0432,1.7000,0
7.691508,0.1820,2.0973,10.1179,-0.9169,-0.0999,1.6867,0
7.697851,0.1053,2.0638,10.1514,-0.9108,-0.1346,1.6835,0
7.702088,0.0335,2.0686,10.1323,-0.9057,-0.1572,1.6737,0
7.705691,0.0000,2.1356,10.1131,-0.8966,-0.1820,1.6705,0
7.710553,-0.0814,2.1117,10.1610,-0.8871,-0.2188,1.6619,0
7.714737,-0.1245,2.1739,10.0461,-0.8743,-0.2345,1.6561,0
7.718100,-0.0766,2.1452,10.0652,-0.8641,-0.2494,1.6574,0
7.721384,-0.1341,2.1596,10.0126,-0.8537,-0.2673,1.6577,0
7.725260,-0.3112,2.1787,10.0413,-0.8431,-0.2843,1.6603,0
7.730662,-0.4597,2.1213,10.1275,-0.8335,-0.2872,1.6643,0
7.734931,-0.4932,2.0782,10.1275,-0.8204,-0.2952,1.6776,0
7.738978,-0.5602,2.0877,10.1945,-0.7935,-0.2947,1.6982,0
7.744504,-0.6273,2.1261,10.2376,-0.7751,-0.2955,1.7107,0
7.748614,-0.6225,2.0494,10.0987,-0.7549,-0.2934,1.7288,0
7.752762,-0.6081,2.1500,10.0700,-0.7301,-0.2915,1.7331,0
7.755996,-0.5986,2.1261,10.0269,-0.7226,-0.2926,1.7475,0
7.759183,-0.4980,2.1931,9.9311,-0.7019,-0.2963,1.7557,0
7.764121,-0.3926,2.2458,9.8881,-0.6816,-0.2915,1.7603,0
7.767938,-0.3065,2.2266,9.8641,-0.6675,-0.2950,1.7698,0
7.771272,-0.2682,2.3032,9.8258,-0.6499,-0.2963,1.7669,0
7.775014,-0.1580,2.3607,9.8162,-0.6291,-0.2918,1.7571,0
7.780790,-0.0862,2.3080,9.7731,-0.6198,-0.3011,1.7552,0
7.784037,-0.0910,2.3607,9.7683,-0.6091,-0.2998,1.7528,0
7.787211,-0.1437,2.3463,9.8497,-0.5918,-0.3043,1.7477,0
7.791322,-0.1245,2.3128,9.8258,-0.5676,-0.3059,1.7395,0
7.797017,-0.1437,2.3080,9.8402,-0.5481,-0.2998,1.7307,0
7.800738,-0.2011,2.3798,9.9311,-0.5356,-0.3011,1.7267,0
7.804354,-0.2873,2.3176,9.8976,-0.5191,-0.3032,1.7166,0
7.809434,-0.3974,2.3128,9.9934,-0.4996,-0.2990,1.7112,0
7.813508,-0.4022,2.3415,9.9838,-0.4810,-0.2987,1.7088,0
7.816717,-0.4262,2.3080,10.0461,-0.4682,-0.2920,1.7043,0
7.820527,-0.5124,2.2841,10.0509,-0.4447,-0.2825,1.7043,0
7.824507,-0.6033,2.2458,10.0509,-0.4229,-0.2763,1.6976,0
7.829551,-0.6512,2.2027,10.0556,-0.4072,-0.2627,1.7030,0
7.833552,-0.6560,2.2218,10.0509,-0.3909,-0.2459,1.7014,0
7.836959,-0.7422,2.1931,10.1083,-0.3680,-0.2422,1.7075,0
7.840757,-0.7518,2.1117,10.1658,-0.3387,-0.2228,1.7064,0
7.846570,-0.6800,2.1213,10.1323,-0.3243,-0.2140,1.7064,0
7.849852,-0.6991,2.1596,10.1897,-0.3056,-0.2049,1.7083,0
7.853084,-0.7326,2.1069,10.1658,-0.2920,-0.2006,1.7094,0
7.856496,-0.5555,2.1500,10.1131,-0.2707,-0.1841,1.7016,0
7.862454,-0.5219,2.0542,10.1227,-0.2465,-0.1732,1.6944,0
7.866428,-0.4501,2.0973,10.0987,-0.2278,-0.1617,1.6859,0
7.869857,-0.3448,2.0734,10.0221,-0.2062,-0.1577,1.6824,0
7.873904,-0.2634,2.1021,9.9742,-0.1844,-0.1588,1.6641,0
7.879668,-0.2634,2.1165,9.9216,-0.1759,-0.1543,1.6502,0
7.882945,-0.1867,2.0973,9.9072,-0.1585,-0.1569,1.6385,0
7.886097,-0.2059,2.0925,9.9647,-0.1468,-0.1559,1.6196,0
7.889383,-0.0910,2.0494,9.9695,-0.1271,-0.1585,1.6086,0
7.893853,-0.0862,2.0159,9.9264,-0.1074,-0.1583,1.5756,0
7.899524,-0.0670,2.0303,9.9072,-0.0935,-0.1575,1.5644,0
7.903049,-0.0431,2.0351,9.8737,-0.0770,-0.1607,1.5471,0
7.906916,-0.0335,1.9728,9.8210,-0.0576,-0.1676,1.5167,0
7.912767,-0.0048,1.9872,9.7540,-0.0442,-0.1676,1.5010,0
7.915982,0.0335,1.9920,9.6822,-0.0325,-0.1735,1.4831,0
7.919178,-0.0144,1.9632,9.6678,-0.0205,-0.1801,1.4634,0
7.923090,0.0383,1.9680,9.6247,-0.0061,-0.1849,1.4421,0
7.927156,-0.0575,1.9920,9.5960,0.0061,-0.1932,1.4101,0
7.932518,-0.0048,1.9441,9.5672,0.0179,-0.1908,1.3923,0
7.936053,0.0287,1.9776,9.5720,0.0258,-0.2017,1.3712,0
7.939808,-0.0670,2.0399,9.5529,0.0394,-0.2017,1.3446,0
7.944817,-0.1293,1.9632,9.5098,0.0506,-0.2057,1.3272,0
7.948399,-0.0670,1.9489,9.4763,0.0504,-0.2065,1.3115,0
7.951668,-0.0718,1.9249,9.4475,0.0578,-0.2086,1.2971,0
7.955007,-0.0479,1.8771,9.4715,0.0719,-0.2084,1.2681,0
7.960917,-0.0958,1.8914,9.4284,0.0826,-0.2110,1.2476,0
7.964926,-0.0575,1.8675,9.4140,0.0869,-0.2113,1.2281,0
7.968439,-0.1197,1.9154,9.4284,0.0951,-0.2153,1.2129,0
7.972475,-0.0718,1.8579,9.3039,0.1013,-0.2126,1.1834,0
7.978549,-0.1197,1.8723,9.3134,0.1103,-0.2129,1.1562,0
7.982032,-0.1197,1.7909,9.2703,0.1106,-0.2124,1.1410,0
7.985615,-0.1197,1.7765,9.2895,0.1124,-0.2020,1.1274,0
7.988749,-0.1293,1.7909,9.2991,0.1188,-0.2105,1.1101,0
7.991998,-0.1628,1.8579,9.2320,0.1215,-0.2012,1.0936,0
7.996939,-0.1867,1.7861,9.2751,0.1178,-0.1966,1.0643,0
8.000749,-0.2059,1.7957,9.2608,0.1231,-0.1929,1.0515,0
8.004060,-0.1963,1.7238,9.3087,0.1170,-0.1881,1.0384,0
8.007723,-0.2873,1.7621,9.2895,0.1204,-0.1801,1.0134,0
8.013531,-0.2682,1.7573,9.2608,0.1210,-0.1713,1.0000,0
8.016793,-0.3256,1.7717,9.2847,0.1234,-0.1633,0.9896,0
8.019949,-0.3448,1.7669,9.2512,0.1194,-0.1572,0.9734,0
8.023352,-0.3448,1.7669,9.2847,0.1183,-0.1463,0.9579,0
8.028742,-0.3400,1.7238,9.2177,0.1132,-0.1335,0.9377,0
8.032659,-0.3448,1.6903,9.2081,0.1146,-0.1239,0.9233,0
8.035910,-0.2873,1.6903,9.1842,0.1055,-0.1156,0.9124,0
8.039683,-0.3543,1.6712,9.1123,0.1050,-0.1002,0.8966,0
8.044664,-0.3112,1.6855,9.1315,0.0949,-0.0834,0.8860,0
8.048286,-0.3448,1.5897,9.0836,0.0986,-0.0805,0.8783,0
8.051482,-0.3352,1.6807,9.0692,0.0909,-0.0687,0.8652,0
8.054648,-0.3352,1.5179,9.0980,0.0869,-0.0581,0.8559,0
8.058887,-0.3112,1.5371,9.0740,0.0829,-0.0397,0.8370,0
8.064842,-0.3065,1.5610,9.0644,0.0778,-0.0160,0.8271,0
8.068340,-0.2394,1.4940,9.0932,0.0775,0.0011,0.8127,0
8.072232,-0.2107,1.4509,9.0884,0.0711,0.0192,0.7962,0
8.078491,-0.2011,1.5275,9.0932,0.0685,0.0373,0.7818,0
8.081876,-0.1772,1.4557,9.1171,0.0677,0.0493,0.7663,0
8.085364,-0.0910,1.3647,9.0740,0.0592,0.0677,0.7557,0
8.088513,-0.1053,1.4269,9.0118,0.0674,0.0847,0.7442,0
8.091716,-0.0239,1.4030,8.9974,0.0634,0.0911,0.7269,0
8.096504,-0.0287,1.3743,9.0261,0.0626,0.1114,0.7000,0
8.100251,0.0000,1.3408,9.0932,0.0613,0.1308,0.6827,0
8.103552,0.1197,1.3120,9.1459,0.0640,0.1455,0.6659,0
8.107533,0.1101,1.3072,9.2129,0.0610,0.1695,0.6342,0
8.113412,0.1293,1.2881,9.2895,0.0655,0.1820,0.6169,0
8.116655,0.1820,1.2402,9.2943,0.0679,0.1916,0.5974,0
8.119773,0.2298,1.2019,9.2608,0.0685,0.2046,0.5769,0
8.123143,0.2298,1.2163,9.3326,0.0743,0.2241,0.5558,0
8.127993,0.3065,1.2019,9.3326,0.0797,0.2372,0.5271,0
8.131787,0.4118,1.1923,9.4140,0.0850,0.2467,0.5004,0
8.135267,0.4788,1.1349,9.4763,0.0885,0.2625,0.4722,0
8.139116,0.6321,1.2115,9.4092,0.0919,0.2678,0.4295,0
8.145456,0.6847,1.1540,9.3565,0.1029,0.2729,0.3952,0
8.148921,0.7278,1.2258,9.3565,0.1066,0.2779,0.3669,0
8.152459,0.8619,1.1396,9.3901,0.1082,0.2787,0.3312,0
8.155587,0.9720,1.2210,9.3182,0.1077,0.2846,0.3019,0
8.158857,1.0487,1.1971,9.1794,0.1114,0.2832,0.2651,0
8.163049,1.1253,1.1779,9.1842,0.1140,0.2811,0.2276,0
8.166743,1.2546,1.2498,9.1123,0.1079,0.2779,0.2036,0
8.170047,1.3312,1.2881,9.0357,0.1116,0.2782,0.1487,0
