t_s,ax,ay,az,gx,gy,gz,led
0.000139,-0.5746,0.5076,9.4858,0.0314,0.0269,0.0163,0
0.006617,-0.5698,0.4932,9.4571,0.0288,0.0240,0.0136,0
0.011078,-0.5267,0.5124,9.4475,0.0168,0.0221,0.0160,0
0.014709,-0.4932,0.5507,9.4379,0.0213,0.0240,0.0149,0
0.017953,-0.4645,0.5315,9.4332,0.0131,0.0173,0.0107,0
0.021718,-0.4405,0.6273,9.3853,0.0197,0.0144,0.0125,0
0.028202,-0.4166,0.6081,9.4044,0.0075,0.0021,0.0096,0
0.031662,-0.4022,0.6129,9.3996,0.0128,-0.0013,0.0029,0
0.034977,-0.3831,0.6129,9.3470,0.0051,-0.0051,0.0024,0
0.040560,-0.4070,0.6369,9.3948,0.0037,-0.0141,-0.0040,0
0.044482,-0.3926,0.5890,9.3182,0.0053,-0.0155,-0.0165,0
0.047811,-0.4310,0.5938,9.2847,0.0040,-0.0197,-0.0184,0
0.051710,-0.4022,0.6512,9.2560,0.0043,-0.0322,-0.0240,0
0.057368,-0.3591,0.5986,9.2608,0.0005,-0.0360,-0.0280,0
0.061239,-0.4118,0.6608,9.1698,0.0064,-0.0456,-0.0322,0
0.064673,-0.4310,0.6416,9.1075,0.0048,-0.0514,-0.0368,0
0.067824,-0.4166,0.6225,9.0070,0.0064,-0.0541,-0.0437,0
0.070928,-0.4357,0.5986,8.9304,-0.0005,-0.0618,-0.0421,0
0.075650,-0.4836,0.5602,8.8202,0.0000,-0.0722,-0.0461,0
0.079387,-0.4884,0.5698,8.6766,0.0000,-0.0722,-0.0496,0
0.082699,-0.4884,0.5315,8.5521,-0.0048,-0.0719,-0.0493,0
0.086703,-0.5698,0.4741,8.2696,-0.0043,-0.0877,-0.0538,0
0.092434,-0.6273,0.4501,8.1068,-0.0069,-0.0965,-0.0509,0
0.095623,-0.6321,0.4405,7.9727,-0.0139,-0.1026,-0.0501,0
0.098822,-0.7278,0.4214,7.7045,-0.0195,-0.1037,-0.0445,0
0.102343,-0.7709,0.4166,7.5992,-0.0211,-0.1228,-0.0424,0
0.107363,-0.9337,0.4022,7.2688,-0.0416,-0.1327,-0.0312,0
0.111214,-0.9337,0.3639,7.0150,-0.0421,-0.1346,-0.0155,0
0.114633,-1.0104,0.2442,6.7325,-0.0520,-0.1479,-0.0045,0
0.118377,-1.0918,0.2969,6.4021,-0.0589,-0.1601,0.0216,0
0.123632,-1.0151,0.1676,5.8323,-0.0671,-0.1756,0.0437,0
0.127805,-0.8236,0.1341,5.3343,-0.0693,-0.1849,0.0584,0
0.131713,-0.8140,-0.0335,4.7597,-0.0770,-0.2028,0.0695,0
0.134848,-0.8332,-0.0335,4.3814,-0.0719,-0.2185,0.0847,0
0.138089,-0.7422,0.1053,3.8499,-0.0762,-0.2366,0.1050,0
0.143484,-0.5555,0.2298,2.8778,-0.0815,-0.2593,0.1077,0
0.147366,-0.6895,0.1724,2.3176,-0.0871,-0.2790,0.1223,0
0.150664,-0.5363,0.3112,1.9489,-0.0842,-0.3163,0.1404,0
0.157031,-0.4549,0.3543,1.4413,-0.0714,-0.3373,0.1511,1
0.161119,-0.3591,-0.1149,1.5610,-0.0368,-0.3472,0.1700,1
0.165149,-0.1580,0.0048,1.3024,-0.0256,-0.3525,0.1700,1
0.168424,-0.1628,0.3208,0.6943,-0.0168,-0.3584,0.1740,1
0.171589,-0.2490,0.3974,0.1389,-0.0197,-0.3597,0.1769,1
0.176306,-0.0910,-0.2298,0.2155,-0.0133,-0.3563,0.1828,1
0.180223,0.0958,-0.2155,0.3065,-0.0109,-0.3640,0.1769,1
0.183599,-0.1149,0.0383,0.2346,-0.0080,-0.3608,0.1772,1
0.188771,-0.0287,-0.1820,0.2107,-0.0080,-0.3597,0.1777,1
0.193098,0.0431,-0.2490,0.0958,-0.0045,-0.3648,0.1769,1
0.196527,-0.1197,-0.0622,-0.0239,-0.0080,-0.3651,0.1740,1
0.199881,-0.1915,0.0335,0.1101,-0.0021,-0.3619,0.1791,1
0.203029,0.0144,-0.1484,0.4118,-0.0101,-0.3595,0.1836,1
0.206394,-0.0048,-0.2251,0.4166,0.0005,-0.3568,0.1788,1
0.211188,-0.1341,-0.0431,0.0958,-0.0008,-0.3579,0.1807,1
0.215079,0.0431,0.0479,-0.0239,-0.0077,-0.3589,0.1815,1
0.218474,-0.0096,-0.2155,0.2921,-0.0021,-0.3584,0.1759,1
0.224108,-0.0575,-0.1245,0.3304,0.0040,-0.3581,0.1785,1
0.228059,-0.0575,0.0192,0.1772,0.0027,-0.3533,0.1724,1
0.231428,-0.0718,-0.1484,0.1724,-0.0005,-0.3536,0.1777,1
0.234745,-0.0814,-0.2682,0.2059,-0.0016,-0.3584,0.1748,1
0.240845,-0.0575,-0.0287,0.3400,0.0043,-0.3536,0.1767,1
0.244755,-0.0766,-0.1101,0.3687,0.0056,-0.3528,0.1785,1
0.248085,-0.0431,-0.1772,0.3639,0.0029,-0.3544,0.1735,1
0.251958,0.0048,-0.1341,0.2394,0.0016,-0.3515,0.1753,1
0.257147,-0.1724,-0.0527,0.2586,0.0051,-0.3605,0.1759,1
0.261061,0.0000,-0.1101,0.4884,0.0035,-0.3485,0.1841,1
0.264523,0.0287,-0.1101,0.4645,0.0069,-0.3547,0.1724,1
0.267850,-0.0814,-0.0383,0.3448,0.0123,-0.3579,0.1759,1
0.270936,-0.1006,-0.0048,0.2682,0.0088,-0.3544,0.1783,1
0.276129,0.0335,-0.1197,0.4070,0.0067,-0.3552,0.1719,1
0.280487,-0.1484,-0.1149,0.5363,0.0123,-0.3477,0.1791,1
0.283868,-0.0862,-0.0622,0.4357,0.0139,-0.3560,0.1743,1
0.289300,-0.0335,-0.1006,0.3879,0.0083,-0.3507,0.1737,1
0.293527,-0.0958,-0.0383,0.4070,0.0197,-0.3549,0.1799,1
0.296881,-0.0575,-0.0575,0.4070,0.0117,-0.3424,0.1705,1
0.300109,-0.0670,-0.1053,0.5459,0.0149,-0.3480,0.1756,1
0.303611,-0.1101,-0.1149,0.5411,0.0195,-0.3464,0.1743,1
0.308643,-0.0622,-0.0814,0.4118,0.0208,-0.3515,0.1809,1
0.313043,-0.0670,-0.0239,0.4310,0.0229,-0.3504,0.1748,1
0.316697,-0.0670,-0.1149,0.5124,0.0184,-0.3403,0.1761,1
0.322332,-0.0287,-0.0718,0.5938,0.0269,-0.3464,0.1772,1
0.327002,-0.0287,-0.0239,0.3879,0.0248,-0.3469,0.1684,1
0.330634,-0.0335,-0.0239,0.4453,0.0277,-0.3451,0.1769,1
0.335467,-0.0144,-0.0431,0.5842,0.0261,-0.3432,0.1753,1
0.338788,-0.0527,-0.0766,0.5890,0.0309,-0.3456,0.1775,1
0.343717,-0.0287,-0.0862,0.5746,0.0306,-0.3400,0.1767,1
0.347846,-0.0383,-0.1006,0.5076,0.0338,-0.3389,0.1753,1
0.351649,-0.0575,-0.0479,0.5411,0.0344,-0.3451,0.1743,1
0.356848,-0.0766,-0.0431,0.6081,0.0330,-0.3352,0.1740,1
0.361149,-0.0527,-0.1341,0.5746,0.0378,-0.3408,0.1772,1
0.364530,-0.1006,-0.0958,0.6129,0.0400,-0.3349,0.1745,1
0.367806,-0.0287,-0.0479,0.4932,0.0346,-0.3416,0.1761,1
0.371718,-0.0527,-0.0527,0.5555,0.0405,-0.3288,0.1761,1
0.376896,-0.0814,-0.0862,0.6656,0.0394,-0.3317,0.1719,1
0.380978,-0.0575,-0.0814,0.5986,0.0464,-0.3317,0.1708,1
0.385061,-0.0622,-0.1053,0.5698,0.0421,-0.3328,0.1748,1
0.390655,-0.0192,-0.0910,0.5698,0.0442,-0.3275,0.1732,1
0.394799,-0.0431,-0.0048,0.5986,0.0485,-0.3288,0.1703,1
0.398341,-0.0622,-0.0814,0.6656,0.0480,-0.3256,0.1692,1
0.401664,-0.0479,-0.0622,0.6177,0.0485,-0.3267,0.1721,1
0.404754,-0.0718,-0.0670,0.6416,0.0504,-0.3262,0.1753,1
0.408536,-0.0766,-0.0670,0.5746,0.0528,-0.3238,0.1759,1
0.414084,-0.0287,-0.0958,0.5986,0.0525,-0.3214,0.1767,1
0.417458,-0.0335,-0.1101,0.6752,0.0488,-0.3200,0.1708,1
0.422416,-0.0096,-0.1389,0.6416,0.0549,-0.3187,0.1737,1
0.426414,-0.0431,-0.1341,0.6129,0.0530,-0.3166,0.1740,1
0.429586,-0.0575,-0.0575,0.6081,0.0485,-0.3123,0.1703,1
0.432781,-0.0527,-0.0862,0.6177,0.0533,-0.3110,0.1737,1
0.436306,-0.0718,-0.1053,0.6369,0.0578,-0.3126,0.1727,1
0.441232,-0.0670,-0.0718,0.6177,0.0552,-0.3126,0.1727,1
0.445141,-0.0144,-0.0862,0.5363,0.0514,-0.3102,0.1719,1
0.448604,-0.1293,-0.0862,0.6081,0.0530,-0.3051,0.1708,1
0.452894,-0.0575,-0.0862,0.6321,0.0570,-0.3048,0.1684,1
0.458962,-0.1293,-0.0910,0.6512,0.0592,-0.3030,0.1673,0
0.462367,-0.0527,-0.1341,0.6129,0.0541,-0.3014,0.1689,0
0.466056,-0.1006,-0.1484,0.6129,0.0536,-0.3016,0.1713,0
0.469249,-0.0862,-0.0958,0.6033,0.0584,-0.2976,0.1673,0
0.472671,-0.0383,-0.0670,0.6704,0.0576,-0.2896,0.1697,0
0.477255,-0.0814,-0.1006,0.6512,0.0581,-0.2886,0.1687,0
0.481092,-0.0766,-0.0910,0.6081,0.0594,-0.2955,0.1689,0
0.484551,-0.0670,-0.0670,0.6416,0.0557,-0.2883,0.1676,0
0.489880,-0.0910,-0.0958,0.5890,0.0600,-0.2811,0.1676,0
0.494089,-0.1101,-0.1006,0.6512,0.0573,-0.2840,0.1687,0
0.497419,-0.0766,-0.1245,0.6273,0.0576,-0.2793,0.1673,0
0.500701,-0.0718,-0.1006,0.6847,0.0466,-0.2758,0.1687,0
0.504858,-0.0622,-0.0527,0.6081,0.0584,-0.2737,0.1692,0
0.510257,-0.0766,-0.0814,0.6512,0.0498,-0.2723,0.1679,0
0.514416,-0.1724,-0.0862,0.7374,0.0592,-0.2638,0.1692,0
0.518609,-0.1293,-0.0383,0.6656,0.0530,-0.2654,0.1692,0
0.524100,-0.1006,-0.0814,0.7183,0.0578,-0.2633,0.1689,0
0.528256,-0.1341,-0.0239,0.7374,0.0560,-0.2555,0.1663,0
0.531718,-0.1149,-0.0527,0.6991,0.0560,-0.2505,0.1689,0
0.535445,-0.1006,-0.0335,0.7230,0.0552,-0.2553,0.1713,0
0.539325,-0.1867,-0.0670,0.7661,0.0589,-0.2446,0.1692,0
0.545540,-0.1580,-0.0479,0.8140,0.0592,-0.2393,0.1655,0
0.549817,-0.1053,-0.0862,0.7566,0.0565,-0.2414,0.1711,0
0.553385,-0.1389,-0.0479,0.7422,0.0584,-0.2308,0.1700,0
0.563893,-0.1245,-0.0718,0.7805,0.0541,-0.2236,0.1719,0
0.567662,-0.0910,-0.0958,0.8140,0.0626,-0.2212,0.1737,0
0.571380,-0.1389,-0.0766,0.8428,0.0618,-0.2190,0.1697,0
0.576765,-0.1293,-0.0192,0.9194,0.0541,-0.2134,0.1711,0
0.581178,-0.1101,-0.0287,0.8954,0.0626,-0.2129,0.1775,0
0.584733,-0.1293,-0.0575,0.9050,0.0642,-0.2060,0.1759,0
0.590371,-0.1245,-0.0144,0.9242,0.0658,-0.1940,0.1764,0
0.594441,-0.0910,-0.0718,0.9002,0.0610,-0.1953,0.1751,0
0.597670,-0.1532,-0.0144,0.8763,0.0632,-0.1905,0.1801,0
0.600938,-0.1101,-0.0335,0.9673,0.0679,-0.1823,0.1724,0
0.604977,-0.1101,-0.0431,0.8954,0.0650,-0.1783,0.1788,0
0.610086,-0.1341,-0.1053,0.8715,0.0687,-0.1748,0.1817,0
0.613881,-0.0622,-0.0910,0.9098,0.0637,-0.1711,0.1836,0
0.617801,-0.1532,-0.0335,0.9433,0.0685,-0.1671,0.1833,0
0.624964,-0.1437,-0.0718,0.9194,0.0709,-0.1623,0.1833,0
0.630079,-0.1293,-0.0958,0.9242,0.0679,-0.1599,0.1863,0
0.633939,-0.1149,-0.0192,0.9242,0.0743,-0.1522,0.1887,0
0.637209,-0.1149,-0.0718,0.9481,0.0663,-0.1468,0.1876,0
0.641272,-0.1245,-0.0910,0.9912,0.0690,-0.1479,0.1855,0
0.646831,-0.0958,-0.0622,0.9673,0.0749,-0.1367,0.1911,0
0.651133,-0.0910,-0.0862,1.0199,0.0741,-0.1338,0.1857,0
0.655945,-0.1341,-0.0862,1.0774,0.0671,-0.1258,0.1924,0
0.661899,-0.0718,-0.0575,1.0965,0.0674,-0.1244,0.1940,0
0.665140,-0.1149,-0.0575,1.1061,0.0637,-0.1250,0.1911,0
0.668214,-0.1772,-0.0958,1.1444,0.0693,-0.1231,0.1951,0
0.672068,-0.1293,-0.1580,1.0822,0.0642,-0.1132,0.1937,0
0.676991,-0.1006,-0.1197,1.0965,0.0608,-0.1148,0.1932,0
0.680703,-0.1676,-0.0431,1.0822,0.0626,-0.1092,0.1996,0
0.683989,-0.1532,-0.1053,1.1540,0.0581,-0.1037,0.1966,0
0.689278,-0.1484,-0.0766,1.0774,0.0618,-0.1018,0.2025,0
0.693632,-0.1676,-0.0862,1.0391,0.0552,-0.0957,0.1951,0
0.697054,-0.1293,-0.1245,1.0918,0.0520,-0.0853,0.1966,0
0.700600,-0.1006,-0.1389,1.0008,0.0530,-0.0826,0.2006,0
0.703795,-0.1532,-0.1484,0.9768,0.0501,-0.0842,0.1974,0
0.707173,-0.0766,-0.1341,0.9816,0.0464,-0.0826,0.2030,0
0.712132,-0.1437,-0.1197,1.0104,0.0458,-0.0733,0.2012,0
0.715934,-0.1628,-0.1532,1.0918,0.0445,-0.0640,0.2001,0
0.719754,-0.1772,-0.1389,1.0918,0.0389,-0.0570,0.2044,0
0.725212,-0.2155,-0.0718,1.1492,0.0416,-0.0482,0.2033,0
0.729326,-0.2729,-0.1053,1.2258,0.0333,-0.0480,0.2060,0
0.732946,-0.1389,-0.0479,1.2354,0.0389,-0.0397,0.2052,0
0.736434,-0.1389,-0.1820,1.1349,0.0368,-0.0384,0.2086,0
0.740548,-0.1006,-0.1484,1.0774,0.0352,-0.0301,0.2092,0
0.747435,-0.1628,-0.1197,1.2402,0.0296,-0.0240,0.2116,0
0.751867,-0.1915,-0.1006,1.1732,0.0277,-0.0131,0.2076,0
0.758447,-0.1676,-0.1484,1.2594,0.0285,-0.0032,0.2092,0
0.763331,-0.1197,-0.0479,1.3120,0.0296,-0.0029,0.2126,0
0.767001,-0.2490,-0.1341,1.3791,0.0274,0.0061,0.2145,0
0.770283,-0.1867,-0.1197,1.3455,0.0253,0.0144,0.2164,0
0.773480,-0.2155,-0.1389,1.3551,0.0333,0.0171,0.2177,0
0.779379,-0.1963,-0.1101,1.3168,0.0224,0.0296,0.2161,0
0.783119,-0.1820,-0.1101,1.2929,0.0242,0.0330,0.2217,0
0.786304,-0.1484,-0.1628,1.3168,0.0184,0.0448,0.2268,0
0.792065,-0.2155,-0.1389,1.3168,0.0181,0.0522,0.2166,0
0.795673,-0.1484,-0.0862,1.3024,0.0197,0.0584,0.2140,0
0.798906,-0.0766,-0.1053,1.3934,0.0163,0.0669,0.2190,0
0.802105,-0.2107,-0.1149,1.4317,0.0136,0.0711,0.2249,0
0.808037,-0.1101,-0.1101,1.4509,0.0144,0.0773,0.2214,0
0.811978,-0.1580,-0.1245,1.4844,0.0155,0.0839,0.2238,0
0.815400,-0.1628,-0.0910,1.4796,0.0125,0.0903,0.2289,0
0.818990,-0.1532,-0.0527,1.4413,0.0125,0.0986,0.2230,0
0.824091,-0.1532,-0.0718,1.4844,0.0160,0.1029,0.2294,0
0.828099,-0.1437,-0.0910,1.4892,0.0184,0.1154,0.2254,0
0.832765,-0.1867,-0.0383,1.5754,0.0080,0.1146,0.2308,0
0.836284,-0.2251,-0.0192,1.5850,0.0155,0.1220,0.2321,0
0.839730,-0.1772,-0.1245,1.5227,0.0120,0.1335,0.2294,0
0.848474,-0.1341,-0.0144,1.5227,0.0131,0.1410,0.2398,0
0.852878,-0.1389,-0.0335,1.4844,0.0163,0.1503,0.2332,0
0.858518,-0.1867,-0.0766,1.5610,0.0195,0.1585,0.2313,0
0.862323,-0.2298,0.0144,1.6137,0.0203,0.1663,0.2342,0
0.865520,-0.2011,-0.0239,1.6999,0.0240,0.1665,0.2372,0
0.868620,-0.2346,-0.0431,1.7238,0.0218,0.1751,0.2438,0
0.873200,-0.2777,-0.0479,1.6376,0.0248,0.1873,0.2433,0
0.878210,-0.1915,-0.0383,1.5850,0.0234,0.1911,0.2459,0
0.882126,-0.1963,-0.0192,1.6855,0.0274,0.1961,0.2465,0
0.885511,-0.1724,-0.0239,1.7047,0.0269,0.2030,0.2497,0
0.891459,-0.1724,-0.0335,1.6951,0.0317,0.2113,0.2489,0
0.895132,-0.1963,-0.0479,1.7238,0.0290,0.2158,0.2529,0
0.898265,-0.1676,-0.0287,1.7238,0.0314,0.2222,0.2529,0
0.901351,-0.1484,-0.0239,1.7334,0.0322,0.2188,0.2555,0
0.904897,-0.2107,-0.0239,1.7717,0.0352,0.2395,0.2571,0
0.910808,-0.2155,-0.0527,1.7669,0.0346,0.2451,0.2555,0
0.914655,-0.1724,-0.0192,1.7334,0.0370,0.2521,0.2611,0
0.918175,-0.1389,-0.0383,1.7573,0.0373,0.2529,0.2617,0
0.923174,-0.1437,-0.0479,1.8387,0.0373,0.2601,0.2641,0
0.927075,-0.1006,-0.0479,1.9680,0.0362,0.2643,0.2635,0
0.930287,-0.1437,-0.0383,2.0542,0.0357,0.2670,0.2614,0
0.933432,-0.1245,-0.1341,2.0877,0.0400,0.2763,0.2619,0
0.936708,-0.1101,-0.0335,2.0973,0.0378,0.2803,0.2657,0
0.940732,-0.2251,-0.0383,2.4277,0.0474,0.2891,0.2667,0
0.946611,-0.2873,0.0479,3.2226,0.0509,0.2995,0.2710,0
0.950534,-0.4453,0.1628,4.9464,0.0592,0.3291,0.2718,0
0.956293,-3.2609,4.7549,16.3332,0.2022,0.6025,0.2697,0
0.960197,-4.2282,7.6806,39.3080,0.5313,1.2521,0.2158,0
0.963417,-7.5561,7.7285,52.9980,0.9371,1.8482,0.1974,0
0.966524,-9.0692,2.1548,62.1535,1.2295,1.4237,0.3520,0
0.969605,22.2661,-17.2574,69.2355,0.5095,0.8828,1.0611,0
0.973539,58.8591,-32.2260,82.3941,-0.1823,0.2065,1.4232,0
0.978490,53.7355,-21.1264,96.6587,-0.6971,-0.5846,1.2446,0
0.982307,12.0141,1.9106,155.1299,-0.5007,-0.3115,1.2199,0
0.985678,9.2273,18.0714,119.3222,-0.0304,-0.5100,0.8252,0
0.991358,20.6189,23.6068,112.9249,-0.1700,0.0735,0.5945,0
0.995133,15.8448,7.7764,134.2573,0.0378,-0.3168,0.4583,0
0.998377,17.8560,-9.3757,137.7001,0.6270,0.0027,0.5193,0
1.001571,33.7247,12.8664,138.4854,0.8567,-0.2542,0.2030,0
1.005372,3.2082,19.9629,109.2474,0.4770,-0.0541,0.3440,0
1.010084,-6.6272,-7.0581,108.3520,0.1895,-0.3778,0.8620,0
1.014402,14.6765,-11.8226,110.5403,-0.1860,-0.4341,0.5276,0
1.018177,15.4474,-0.1532,99.4456,-0.3059,-0.1807,-0.0115,0
1.023441,4.3479,7.5561,77.6296,-0.6635,-0.0829,-0.2521,0
1.027623,16.5296,10.3430,73.2338,-0.9963,-0.2435,-0.7171,0
1.030909,33.7774,7.5944,83.1698,-0.9878,-0.4788,-1.2828,0
1.034123,17.4250,6.4452,78.0749,-0.7288,-0.3680,-1.4962,0
1.037840,7.7045,11.7651,66.7839,-0.4898,-0.7957,-1.4115,0
1.043115,13.7667,18.2630,64.6961,-0.1258,-1.0397,-1.3459,0
1.047859,-1.8914,15.1026,54.8559,0.3837,-1.3440,-0.9041,0
1.051798,3.7110,19.7522,43.3063,0.6928,-1.5721,-0.5151,0
1.057206,5.2864,17.4489,39.6432,1.0155,-1.8175,-0.1383,0
1.061560,8.3606,18.3539,37.6608,1.2979,-2.0773,0.1188,0
1.065062,10.0269,18.4354,34.8069,1.4573,-2.2628,0.2265,0
1.068445,9.5864,16.2758,32.0584,1.5703,-2.4112,0.2675,0
1.072188,8.6526,12.9287,29.9563,1.6707,-2.5642,0.3008,0
1.078248,6.7181,9.2847,25.0769,1.6009,-2.6012,0.3091,0
1.082527,5.4779,6.4260,23.0083,1.5138,-2.5831,0.2686,0
1.086480,2.0399,4.8459,21.5670,1.3105,-2.3334,0.1663,0
1.092090,-0.9194,4.6974,19.2254,1.1242,-2.0230,0.0794,0
1.096054,1.6951,6.1579,17.7554,1.0155,-1.9012,0.0075,0
1.099350,2.2170,5.0374,16.6924,0.9158,-1.7200,-0.0709,0
1.102547,2.4900,4.8794,15.5001,0.8415,-1.5332,-0.1644,0
1.106204,-0.5124,5.1092,13.6326,0.6805,-1.2670,-0.2486,0
1.111134,-2.6049,4.1468,12.2487,0.5689,-1.0810,-0.2246,0
1.114901,-2.2075,3.6775,11.6741,0.4631,-0.8958,-0.2390,0
1.118297,-3.8547,2.9592,10.7021,0.3072,-0.5438,-0.2358,0
1.124717,-5.1044,2.6815,8.0349,0.1977,-0.3126,-0.1887,0
1.128817,-3.7302,2.6576,6.8474,0.0885,-0.0775,-0.1865,0
1.132554,-4.4053,1.2737,7.0342,0.0389,0.0474,-0.1876,0
1.135754,-4.6735,0.6225,6.4596,-0.0141,0.1836,-0.1665,0
1.138915,-3.8882,0.7183,4.9321,-0.0845,0.3107,-0.1431,0
1.142728,-3.2274,0.2682,3.5338,-0.1966,0.4871,-0.1391,0
1.147887,-3.9169,-1.4269,3.4812,-0.2638,0.6001,-0.1303,0
1.151541,-4.1037,-1.7526,2.7725,-0.3453,0.7392,-0.1215,0
1.155791,-3.7350,-1.9154,1.6185,-0.4863,0.9116,-0.1132,0
1.161637,-3.3710,-2.2027,1.4940,-0.5585,0.9920,-0.0965,0
1.164912,-2.8347,-2.1261,1.3647,-0.6158,1.0637,-0.0898,0
1.168017,-2.7007,-1.9776,1.2833,-0.6755,1.1231,-0.0911,0
1.171770,-2.5953,-1.7382,1.0391,-0.7554,1.2119,-0.0837,0
1.176903,-1.8340,-1.6951,0.8380,-0.7938,1.2460,-0.0831,0
1.180676,-1.3264,-1.5658,0.7949,-0.8356,1.2673,-0.0861,0
1.184187,-1.1875,-1.3455,0.7422,-0.8876,1.3075,-0.0818,0
1.190192,-0.6847,-1.0582,0.5746,-0.9252,1.3145,-0.0946,0
1.194528,-0.7230,-1.0343,0.5171,-0.9430,1.3270,-0.0970,0
1.197855,-0.7374,-0.8954,0.5507,-0.9689,1.3283,-0.1002,0
1.201157,-0.4693,-0.6177,0.5124,-0.9769,1.3384,-0.1108,0
1.204239,-0.4645,-0.5267,0.5986,-0.9974,1.3472,-0.1306,0
1.207735,-0.5650,-0.3926,0.7757,-1.0046,1.3523,-0.1444,0
1.212711,-0.5890,-0.1867,0.9194,-1.0152,1.3603,-0.1537,0
1.216563,-0.6943,-0.0814,1.0199,-1.0160,1.3624,-0.1660,0
1.220184,-0.8619,0.0479,1.2833,-1.0128,1.3675,-0.1687,0
1.225313,-0.5028,-0.0479,1.6233,-1.0131,1.3526,-0.1623,0
1.229054,-0.5171,-0.0958,1.8292,-1.0046,1.3430,-0.1596,0
1.232353,-0.7901,-0.0766,1.8627,-1.0022,1.3320,-0.1455,0
1.235694,-0.6177,0.0527,1.8962,-1.0027,1.3134,-0.1271,0
1.239736,-0.7183,0.0335,2.0925,-0.9942,1.2846,-0.1114,0
1.244831,-1.0726,0.1053,2.2122,-0.9758,1.2684,-0.0903,0
1.248804,-0.9673,0.2634,2.2745,-0.9678,1.2593,-0.0762,0
1.252370,-0.7230,-0.2394,2.4612,-0.9438,1.2233,-0.0648,0
1.258759,-0.5602,-0.4884,2.6145,-0.9329,1.2052,-0.0560,0
1.262459,-0.1293,-0.5746,2.6001,-0.9209,1.1810,-0.0663,0
1.265659,0.1724,-0.8092,2.7485,-0.9196,1.1567,-0.0829,0
1.268803,0.4549,-0.9577,2.7438,-0.9092,1.1277,-0.0999,0
1.272637,0.4501,-1.0439,2.6576,-0.9084,1.0864,-0.1316,0
1.277589,-0.1772,-1.0487,2.5618,-0.9044,1.0645,-0.1439,0
1.281470,-0.5602,-1.2402,2.6719,-0.9033,1.0464,-0.1625,0
1.284861,-0.9433,-1.2402,2.8730,-0.8860,1.0379,-0.1719,0
1.289624,-1.0247,-0.9720,2.9113,-0.8828,1.0240,-0.1673,0
1.293613,-0.9098,-1.1301,3.3327,-0.8825,0.9984,-0.1567,0
1.296986,-1.0056,-1.3072,3.5003,-0.8708,0.9785,-0.1399,0
1.300226,-1.5227,-1.2402,3.4141,-0.8695,0.9691,-0.1114,0
1.303656,-1.7142,-1.2115,3.3088,-0.8676,0.9438,-0.0645,0
1.308126,-1.7765,-1.5610,3.6775,-0.8655,0.9108,0.0099,0
1.313821,-1.7142,-1.8100,3.6583,-0.8695,0.8974,0.0485,0
1.317574,-1.8531,-1.8387,3.6200,-0.8716,0.8767,0.0999,0
1.322039,-1.7765,-2.1261,4.1037,-0.8831,0.8639,0.1575,0
1.327720,-1.6472,-1.9824,4.5250,-0.8799,0.8633,0.1716,0
1.331416,-1.4461,-1.5945,4.8554,-0.8761,0.8577,0.1892,0
1.334736,-1.1588,-1.3312,5.3582,-0.8644,0.8450,0.2028,0
1.338997,-1.3695,-0.9960,6.2824,-0.8218,0.8450,0.2188,0
1.345181,-2.0830,-0.6416,6.6607,-0.7767,0.8559,0.2270,0
1.349293,-2.0446,-0.5602,7.0006,-0.7416,0.8743,0.2372,0
1.353777,-1.8818,-0.6177,7.5130,-0.6646,0.9049,0.2244,0
1.359745,-1.6281,-0.4645,7.8578,-0.6051,0.9268,0.2134,0
1.363607,-1.7142,-0.5411,7.9152,-0.5590,0.9590,0.1929,0
1.366822,-1.8196,-0.7566,8.3031,-0.5284,0.9808,0.1823,0
1.370602,-1.8100,-0.9720,8.3606,-0.4596,1.0198,0.1615,0
1.374807,-1.3695,-1.0726,8.2839,-0.3896,1.0475,0.1476,0
1.380630,-1.0247,-1.4126,8.2744,-0.3365,1.0507,0.1415,0
1.384489,-1.1396,-1.6041,8.3175,-0.2771,1.0469,0.1394,0
1.388582,-0.7566,-1.4174,8.0158,-0.2180,1.0331,0.1415,0
1.394492,-0.4501,-1.3503,7.9440,-0.1668,1.0072,0.1391,0
1.398194,0.0862,-1.1684,7.9440,-0.1348,0.9880,0.1338,0
1.401310,0.5602,-0.8332,7.8626,-0.0719,0.9443,0.1156,0
1.405340,0.9002,-0.2203,7.8482,0.0035,0.8772,0.0925,0
1.410299,1.2163,0.2969,7.9200,0.0605,0.8255,0.0821,0
1.414095,1.0774,0.3926,7.7907,0.1220,0.7850,0.0738,0
1.417814,0.4597,0.5602,7.8578,0.2233,0.6960,0.0685,0
1.424042,0.9625,0.8811,8.1690,0.2910,0.6334,0.0541,0
1.427919,0.8763,1.1588,8.3127,0.3555,0.5918,0.0397,0
1.431152,1.1205,1.4317,8.2456,0.4154,0.5510,0.0229,0
1.434570,1.5275,1.6424,8.1499,0.4711,0.5217,-0.0005,0
1.437691,1.6520,1.6089,8.1690,0.5359,0.4826,-0.0338,0
1.441148,2.2553,1.3024,7.9296,0.6390,0.4026,-0.0829,0
1.446047,2.6432,1.4653,7.5944,0.7093,0.3216,-0.1188,0
1.450138,2.2170,1.3647,7.9679,0.7701,0.2545,-0.1420,0
1.453761,1.8771,1.3791,8.3175,0.8623,0.1628,-0.1633,0
1.459501,2.2410,1.8866,8.6143,0.9465,0.0751,-0.1745,0
1.463108,1.7621,2.0925,8.9352,0.9926,0.0173,-0.1740,0
1.466287,1.5945,2.2745,9.1937,1.0643,-0.0472,-0.1660,0
1.469406,1.5850,2.5091,9.7157,1.1223,-0.1127,-0.1644,0
1.473510,1.3168,2.6576,10.1418,1.2193,-0.2225,-0.1524,0
1.478397,1.2115,2.9209,10.6925,1.3065,-0.3131,-0.1351,0
1.482203,1.2354,2.9353,11.3342,1.3510,-0.3680,-0.1300,0
1.485628,1.3408,2.3990,11.7843,1.4200,-0.4474,-0.1255,0
1.490165,2.0782,1.5562,12.0764,1.4871,-0.5534,-0.1410,0
1.494013,3.1556,0.5650,12.0859,1.5106,-0.6454,-0.1732,0
1.497200,3.6344,-0.4357,12.0764,1.5186,-0.7538,-0.1903,0
1.500403,4.8028,-1.8579,12.1338,1.4981,-0.8527,-0.1982,0
1.503749,5.9424,-3.7445,12.1578,1.4218,-1.0752,-0.2465,0
1.509316,5.2816,-5.3343,11.6981,1.2830,-1.3403,-0.2795,0
1.513280,5.0278,-5.6790,11.2958,1.1620,-1.5098,-0.3190,0
1.516623,4.4149,-5.7317,11.4395,1.0437,-1.6505,-0.3579,0
1.520177,3.4285,-4.9799,11.6885,0.8839,-1.8378,-0.3938,0
1.525254,2.3224,-3.7733,11.9662,0.8042,-1.9225,-0.4191,0
1.528890,1.0247,-3.1556,12.3780,0.7565,-1.9862,-0.4311,0
1.532010,0.1915,-2.5570,12.1673,0.7221,-2.0240,-0.4261,0
1.535084,0.0335,-2.1308,11.6885,0.6787,-2.0475,-0.4271,0
1.538816,-0.1963,-2.2410,11.9758,0.6512,-2.0616,-0.4199,0
1.543777,-0.4645,-1.8818,11.9662,0.6331,-2.0677,-0.4074,0
1.547562,-0.2155,-1.2546,11.6646,0.6187,-2.0510,-0.4213,0
1.550909,-0.5650,-1.3982,11.8848,0.6118,-1.9950,-0.4517,0
1.557541,-1.2354,-1.2210,11.9375,0.6158,-1.8940,-0.4940,0
1.562204,-1.2258,-1.4078,11.7364,0.6105,-1.8279,-0.5199,0
1.565997,-0.8715,-1.7286,11.9614,0.6011,-1.7626,-0.5612,0
1.569794,0.1628,-1.5562,11.9231,0.5947,-1.7035,-0.6003,0
1.573098,0.7470,-1.4796,12.0811,0.5849,-1.6467,-0.6382,0
1.577776,0.5171,-1.3072,12.3158,0.5745,-1.5969,-0.6664,0
1.581946,-0.0287,-1.2450,12.4163,0.5745,-1.5719,-0.6600,0
1.585234,-0.8428,-1.2641,12.4929,0.5676,-1.5380,-0.6041,0
1.590735,-1.9249,-1.5610,12.8569,0.5721,-1.5132,-0.4874,0
1.594886,-2.3415,-1.1301,12.5169,0.5766,-1.4935,-0.3797,0
1.598301,-2.1069,-0.7949,12.5504,0.5729,-1.4901,-0.2761,0
1.601433,-1.5658,-0.8236,12.4786,0.5801,-1.4805,-0.1772,0
1.605208,-0.9290,-0.4262,12.0524,0.5875,-1.4789,-0.0597,0
1.610286,-0.1484,-0.1006,11.8465,0.5846,-1.4626,-0.0195,0
1.614017,-0.5028,0.3926,11.6502,0.5913,-1.4349,0.0099,0
1.617351,0.2682,0.4501,11.6550,0.5790,-1.3779,0.0264,0
1.624098,0.5938,1.2402,11.7651,0.5684,-1.3187,0.0123,0
1.628093,1.1061,1.5945,11.8178,0.5508,-1.3033,0.0245,0
1.631412,2.8299,1.6520,12.2009,0.5316,-1.3027,0.0160,0
1.634885,2.7007,1.7957,12.8377,0.5271,-1.3001,0.0043,0
1.638049,2.0782,2.1356,12.7419,0.5215,-1.3155,0.0213,0
1.641841,3.5817,2.6432,12.5169,0.4807,-1.3358,0.0370,0
1.647699,3.2896,2.4948,13.1106,0.4596,-1.3635,0.0370,0
1.651079,2.9832,2.7246,13.2112,0.4423,-1.3885,0.0482,0
1.654906,3.7254,3.2178,12.7515,0.4090,-1.4112,0.0506,0
1.660792,3.2082,2.9305,12.8425,0.3901,-1.4232,0.0464,0
1.664274,3.0311,3.0071,12.8138,0.3568,-1.4296,0.0482,0
1.667783,2.9880,3.2130,12.6462,0.3094,-1.3992,0.0274,0
1.676091,2.3511,3.2130,12.7276,0.2435,-1.3475,0.0203,0
1.680327,2.2458,3.4046,12.6174,0.2033,-1.2870,0.0083,0
1.683845,1.6616,3.3854,12.6270,0.1713,-1.2433,0.0088,0
1.689354,1.1109,3.0598,12.1242,0.1178,-1.1335,0.0189,0
1.693703,1.3455,3.2992,11.8082,0.0837,-1.0709,0.0226,0
1.697171,1.4653,3.7924,11.5544,0.0562,-0.9966,0.0290,0
1.700906,1.5658,3.7781,11.4970,0.0442,-0.9585,0.0386,0
1.704121,1.9968,3.8116,11.3820,0.0381,-0.9118,0.0378,0
1.707810,2.6240,3.9744,10.9798,0.0218,-0.8540,0.0370,0
1.712758,3.1077,3.9217,10.5824,0.0104,-0.8172,0.0301,0
1.716557,3.5674,3.8642,10.6015,0.0024,-0.7975,0.0264,0
1.719817,3.7254,3.8499,10.5345,0.0064,-0.7674,0.0115,0
1.725955,3.7685,3.9840,10.2089,0.0035,-0.7490,0.0112,0
1.729713,3.6583,3.7541,10.1227,0.0064,-0.7368,0.0043,0
1.733016,3.1939,3.6488,10.1227,0.0136,-0.7240,0.0077,0
1.736511,2.9113,3.6344,10.0269,0.0258,-0.6933,0.0200,0
1.741503,2.5331,3.6057,9.7157,0.0386,-0.6544,0.0341,0
1.745428,2.2314,3.4093,9.6247,0.0421,-0.6267,0.0568,0
1.748813,2.0207,3.2705,9.4140,0.0546,-0.6017,0.0797,0
1.752656,1.8818,3.1747,9.1602,0.0640,-0.5388,0.1186,0
1.757822,1.5897,2.8730,8.8969,0.0655,-0.4826,0.1452,0
1.761943,1.6185,2.7438,8.7580,0.0711,-0.4397,0.1649,0
1.765193,1.7047,2.7438,8.5952,0.0738,-0.3877,0.1799,0
1.769493,1.7717,2.7533,8.6095,0.0757,-0.3389,0.1847,0
1.806947,3.3279,1.9345,7.4124,0.0677,0.0480,0.1591,0
1.810783,3.4381,1.6233,7.1108,0.0496,0.0887,0.1519,0
1.816065,3.4333,1.5514,7.0246,0.0301,0.1119,0.1330,0
1.821153,3.2034,1.3216,6.8857,0.0035,0.1553,0.1103,0
1.826048,3.2274,1.2450,6.8618,-0.0149,0.1759,0.1026,0
1.829868,2.9832,1.1109,6.9815,-0.0384,0.2118,0.0922,0
1.833068,2.7485,1.1349,7.1060,-0.0496,0.2326,0.0890,0
1.836049,2.7007,1.2163,7.2401,-0.0703,0.2641,0.0874,0
1.839676,2.5762,1.2402,7.5369,-0.0786,0.3174,0.0794,0
1.844207,2.3032,1.3072,7.7812,-0.0861,0.3437,0.0818,0
1.847452,2.1452,1.3455,8.0014,-0.0887,0.3840,0.0829,0
1.850513,2.0638,1.4557,8.1786,-0.0850,0.4346,0.0866,0
1.855457,2.1404,1.3360,8.2600,-0.0802,0.5028,0.0869,0
1.860849,2.5570,1.2689,8.0349,-0.0778,0.5321,0.0885,0
1.864155,2.5666,1.0199,7.9727,-0.0706,0.5654,0.0837,0
1.867432,2.5809,0.7470,7.8243,-0.0775,0.5910,0.0911,0
1.870882,2.8204,0.5363,7.6183,-0.0879,0.6209,0.0847,0
1.875018,3.0215,0.6273,7.3885,-0.0983,0.6406,0.0815,0
1.879416,3.4477,0.7422,7.4651,-0.1045,0.6542,0.0839,0
1.882927,3.6057,0.6800,7.6136,-0.1090,0.6563,0.0818,0
1.886042,3.7924,0.8236,7.7524,-0.1108,0.6707,0.0794,0
1.890855,3.6200,0.7566,7.8147,-0.1159,0.6763,0.0679,0
1.894335,3.5817,0.4070,7.9727,-0.1215,0.6859,0.0624,0
1.897364,3.3950,0.3448,8.0493,-0.1194,0.6923,0.0589,0
1.900363,3.2130,0.3543,8.1259,-0.1295,0.7101,0.0589,0
1.903380,2.9257,0.2682,7.9823,-0.1418,0.7264,0.0549,0
1.908259,3.0981,0.1053,7.8769,-0.1607,0.7456,0.0637,0
1.911767,3.2657,0.1676,7.8386,-0.1620,0.7562,0.0669,0
1.914915,3.4572,0.3017,7.8530,-0.1801,0.7525,0.0618,0
1.918694,3.7206,0.3974,7.9487,-0.2009,0.7474,0.0695,0
1.923390,3.6248,0.4836,8.1163,-0.2084,0.7453,0.0616,0
1.927059,3.6248,0.4980,8.1786,-0.2169,0.7360,0.0568,0
1.930128,3.6488,0.6033,8.2744,-0.2297,0.7376,0.0461,0
1.933591,3.4046,0.6416,8.4563,-0.2321,0.7322,0.0424,0
1.936580,3.1029,0.6991,8.6191,-0.2348,0.7290,0.0333,0
1.941030,2.8922,0.7135,8.8346,-0.2350,0.7429,0.0216,0
1.944594,2.7342,0.7805,9.0309,-0.2441,0.7512,0.0109,0
1.947751,2.6001,0.8906,9.1554,-0.2324,0.7520,0.0067,0
1.951358,2.7007,0.8571,9.2847,-0.2222,0.7586,0.0029,0
1.955821,2.5139,0.9002,9.3422,-0.2212,0.7663,-0.0109,0
1.959645,2.6432,1.0822,9.4906,-0.2148,0.7717,-0.0168,0
1.962666,2.7198,1.1349,9.6055,-0.2081,0.7658,-0.0285,0
1.966074,2.7773,1.2450,9.7444,-0.1895,0.7722,-0.0357,0
1.969142,2.8204,1.3886,9.7636,-0.1804,0.7679,-0.0482,0
1.972557,2.7821,1.4461,9.7252,-0.1537,0.7589,-0.0658,0
1.976721,2.7533,1.4126,9.8162,-0.1474,0.7506,-0.0783,0
1.979962,2.6959,1.3695,9.8737,-0.1266,0.7453,-0.0943,0
1.983046,2.4852,1.4030,9.9024,-0.1108,0.7336,-0.1023,0
1.986453,2.3415,1.3455,9.8402,-0.0957,0.7232,-0.1122,0
1.991912,1.9872,1.2019,9.8785,-0.0826,0.7178,-0.1140,0
1.995088,1.7765,1.1444,9.8258,-0.0775,0.7099,-0.1164,0
1.998125,1.6855,1.1349,9.9168,-0.0725,0.7051,-0.1124,0
2.001406,1.5802,1.0726,9.8450,-0.0669,0.6987,-0.1143,0
2.004551,1.5514,0.9960,9.8354,-0.0602,0.6976,-0.1164,0
2.009706,1.4988,0.9337,9.6486,-0.0610,0.6941,-0.1186,0
2.012961,1.5514,0.7757,9.5577,-0.0693,0.6907,-0.1242,0
2.016104,1.3743,0.6895,9.4763,-0.0807,0.6869,-0.1215,0
2.019563,1.2641,0.7949,9.5002,-0.0919,0.6835,-0.1255,0
2.025004,1.2881,0.7614,9.6534,-0.1074,0.6768,-0.1276,0
2.028251,1.1444,0.9098,9.6726,-0.1175,0.6704,-0.1244,0
2.031307,1.1636,1.0104,9.7827,-0.1247,0.6592,-0.1196,0
2.034877,1.1732,1.1253,9.8545,-0.1399,0.6483,-0.1218,0
2.038021,1.2115,1.1492,9.9551,-0.1428,0.6390,-0.1119,0
2.042109,1.3312,1.2594,10.1227,-0.1527,0.6174,-0.1100,0
2.045810,1.4509,1.4222,10.1897,-0.1601,0.5955,-0.1085,0
2.049038,1.5754,1.4988,10.2999,-0.1593,0.5780,-0.1055,0
2.052563,1.7382,1.5802,10.3813,-0.1647,0.5319,-0.1124,0
2.057020,1.7573,1.6855,10.4531,-0.1599,0.5073,-0.1098,0
2.060655,1.5562,1.6807,10.3956,-0.1721,0.4754,-0.1156,0
2.063810,1.5131,1.6472,10.4196,-0.1780,0.4546,-0.1164,0
2.067032,1.2402,1.5658,10.4196,-0.1743,0.4279,-0.1124,0
2.070311,1.1061,1.4605,10.3717,-0.1844,0.4010,-0.1018,0
2.073807,0.7949,1.4222,10.3142,-0.1966,0.3672,-0.0869,0
2.077945,0.6752,1.5993,10.3190,-0.2004,0.3483,-0.0711,0
2.081266,0.6321,1.5802,10.4674,-0.2044,0.3198,-0.0520,0
2.084363,0.5986,1.5419,10.5728,-0.2062,0.3016,-0.0389,0
2.088542,0.6512,1.5227,10.5345,-0.2196,0.2683,-0.0131,0
2.092553,0.6225,1.3551,10.4770,-0.2169,0.2459,-0.0027,0
2.095708,0.5411,1.2450,10.4483,-0.2164,0.2329,0.0112,0
2.098750,0.5124,1.1875,10.5105,-0.2270,0.2169,0.0208,0
2.101975,0.4884,1.1588,10.5058,-0.2332,0.2073,0.0261,0
2.105150,0.5507,1.2977,10.5632,-0.2374,0.1823,0.0301,0
2.110077,0.6704,1.3838,10.7164,-0.2380,0.1652,0.0322,0
2.113370,0.7230,1.4605,10.8362,-0.2300,0.1522,0.0384,0
2.116451,0.8284,1.5227,10.8170,-0.2228,0.1311,0.0413,0
2.120920,0.8811,1.5754,10.8649,-0.2118,0.1103,0.0440,0
2.125126,1.0726,1.6424,11.0277,-0.2044,0.0895,0.0453,0
2.128319,1.1827,1.6281,11.0421,-0.1852,0.0749,0.0386,0
2.131718,1.1253,1.6664,11.1091,-0.1772,0.0562,0.0333,0
2.134870,1.2067,1.5467,11.0421,-0.1671,0.0445,0.0258,0
2.138000,1.1827,1.5323,11.0756,-0.1426,0.0264,0.0232,0
2.142853,1.0965,1.4030,10.9894,-0.1284,0.0088,0.0120,0
2.146084,0.9960,1.3408,10.9176,-0.1218,0.0008,0.0043,0
2.149209,0.9337,1.2929,10.9271,-0.1135,-0.0056,0.0013,0
2.152761,0.8667,1.0678,10.8409,-0.0829,-0.0125,-0.0061,0
2.158358,0.6895,1.0343,10.7691,-0.0775,-0.0163,-0.0091,0
2.161595,0.7039,0.9673,10.7069,-0.0706,-0.0128,-0.0099,0
2.165078,0.7230,0.9577,10.5776,-0.0610,-0.0149,-0.0112,0
2.168131,0.6800,0.8763,10.5728,-0.0568,-0.0200,-0.0152,0
2.171117,0.7614,0.8284,10.5010,-0.0514,-0.0171,-0.0144,0
2.176020,0.8428,0.7518,10.3142,-0.0410,-0.0152,-0.0080,0
2.180785,0.8811,0.7422,10.2185,-0.0306,-0.0197,-0.0083,0
2.184015,0.9433,0.7183,10.1323,-0.0309,-0.0115,-0.0059,0
2.187902,0.9577,0.7518,10.0940,-0.0301,-0.0208,-0.0139,0
2.192053,1.0391,0.7614,10.0652,-0.0336,-0.0179,-0.0141,0
2.195317,1.1396,0.7470,10.0940,-0.0234,-0.0189,-0.0168,0
2.198742,1.1684,0.7518,10.1227,-0.0301,-0.0211,-0.0189,0
2.201877,1.2498,0.8763,10.0892,-0.0301,-0.0240,-0.0141,0
2.205155,1.2689,0.8523,10.0509,-0.0288,-0.0277,-0.0163,0
2.209339,1.3360,0.8811,10.0844,-0.0234,-0.0296,-0.0155,0
2.212515,1.3120,0.9098,10.0317,-0.0226,-0.0258,-0.0147,0
2.215587,1.2737,0.9002,10.0461,-0.0200,-0.0298,-0.0176,0
2.219053,1.2019,0.8571,10.0078,-0.0176,-0.0325,-0.0187,0
2.224454,1.1492,0.8571,9.9503,-0.0152,-0.0234,-0.0152,0
2.227732,1.1061,0.7901,9.9264,-0.0133,-0.0309,-0.0152,0
2.231082,1.0726,0.8045,9.9455,-0.0157,-0.0221,-0.0091,0
2.234324,1.0295,0.7901,9.9311,-0.0128,-0.0200,-0.0077,0
2.237322,1.0487,0.8045,9.9264,-0.0112,-0.0093,0.0029,0
2.242500,0.9385,0.8045,9.9120,-0.0115,-0.0019,0.0008,0
2.245725,1.0056,0.8380,9.9886,-0.0075,0.0104,0.0029,0
2.248918,0.9960,0.8045,9.9551,-0.0061,0.0141,0.0045,0
2.252417,0.9720,0.8811,10.0173,0.0059,0.0237,0.0141,0
2.257982,1.1061,1.0008,9.9886,0.0083,0.0344,0.0155,0
2.261314,1.0918,0.9816,9.9551,0.0120,0.0338,0.0144,0
2.264497,1.1971,1.0247,9.8881,0.0224,0.0362,0.0125,0
2.267668,1.1971,1.1684,9.9216,0.0298,0.0440,0.0184,0
2.270691,1.2450,1.1349,9.8785,0.0376,0.0394,0.0139,0
2.274155,1.3120,1.1779,9.8689,0.0624,0.0394,0.0165,0
2.278911,1.3599,1.2306,9.7971,0.0642,0.0405,0.0128,0
2.282133,1.3360,1.2546,9.8019,0.0765,0.0378,0.0144,0
2.285291,1.3886,1.2689,9.7157,0.0930,0.0309,0.0085,0
2.291037,1.4078,1.2689,9.5672,0.1031,0.0232,0.0115,0
2.294804,1.3120,1.2163,9.4906,0.1066,0.0149,0.0101,0
2.297924,1.3695,1.2210,9.4906,0.1188,0.0088,0.0051,0
2.301306,1.3168,1.1684,9.4810,0.1199,0.0112,0.0067,0
2.304354,1.2689,1.2306,9.4427,0.1298,0.0024,0.0093,0
2.307939,1.2977,1.1827,9.5098,0.1378,-0.0072,0.0035,0
2.312461,1.1971,1.2546,9.4763,0.1474,-0.0077,0.0019,0
2.315618,1.2498,1.2402,9.5385,0.1535,-0.0131,0.0013,0
2.319058,1.2737,1.2306,9.4763,0.1612,-0.0152,0.0053,0
2.323716,1.1588,1.2546,9.5193,0.1689,-0.0234,0.0083,0
2.327336,1.0965,1.2115,9.5481,0.1724,-0.0269,0.0115,0
2.330368,1.1349,1.2498,9.5577,0.1775,-0.0264,0.0136,0
2.333892,1.1349,1.2498,9.4810,0.1852,-0.0341,0.0109,0
2.336877,1.0918,1.2067,9.5672,0.1823,-0.0370,0.0173,0
2.341222,1.2163,1.2354,9.4954,0.1860,-0.0453,0.0160,0
2.344869,1.1827,1.2115,9.5050,0.1897,-0.0448,0.0221,0
2.347980,1.2210,1.2450,9.4858,0.1943,-0.0477,0.0245,0
2.351455,1.3072,1.1875,9.4954,0.1977,-0.0501,0.0213,0
2.355820,1.3455,1.1732,9.4427,0.1943,-0.0578,0.0160,0
2.359673,1.3072,1.1205,9.3948,0.1889,-0.0554,0.0173,0
2.362651,1.3312,1.0918,9.3757,0.1863,-0.0530,0.0157,0
2.366053,1.3455,1.1253,9.3613,0.1865,-0.0621,0.0117,0
2.369193,1.2737,1.1157,9.2895,0.1847,-0.0653,0.0115,0
2.372616,1.2881,1.0582,9.2656,0.1732,-0.0709,0.0051,0
2.376991,1.3791,0.9529,9.2416,0.1700,-0.0714,0.0027,0
2.380499,1.3599,0.9673,9.2608,0.1689,-0.0730,0.0029,0
2.383817,1.3695,0.9002,9.1123,0.1572,-0.0730,0.0048,0
2.387662,1.3838,0.9385,9.2081,0.1537,-0.0863,-0.0013,0
2.391813,1.4509,0.9529,9.1650,0.1484,-0.0826,-0.0040,0
2.395006,1.4653,0.8954,9.1363,0.1338,-0.0818,-0.0037,0
2.398106,1.4557,0.9194,9.0980,0.1322,-0.0930,-0.0061,0
2.401201,1.4413,0.8045,9.0405,0.1247,-0.0919,-0.0088,0
2.404218,1.4317,0.8667,9.0022,0.1143,-0.0999,-0.0064,0
2.409320,1.4030,0.7901,9.0214,0.1100,-0.1069,-0.0069,0
2.412527,1.4317,0.7709,9.0261,0.1050,-0.1103,-0.0056,0
2.415593,1.3551,0.7805,8.9926,0.0962,-0.1167,-0.0027,0
2.419061,1.3408,0.7566,8.9687,0.0818,-0.1172,-0.0027,0
2.424602,1.3695,0.7183,8.9830,0.0775,-0.1300,0.0024,0
2.427967,1.3551,0.7183,8.9352,0.0741,-0.1300,-0.0011,0
2.431159,1.4078,0.6608,8.8921,0.0642,-0.1343,0.0043,0
2.434348,1.4222,0.6129,8.8107,0.0541,-0.1343,0.0029,0
2.437275,1.3886,0.6416,8.8250,0.0466,-0.1418,0.0029,0
2.441173,1.5227,0.5171,8.8633,0.0269,-0.1452,-0.0029,0
2.444708,1.5706,0.5555,8.9064,0.0203,-0.1537,-0.0027,0
2.447808,1.6233,0.5555,8.9783,0.0117,-0.1625,-0.0053,0
2.451388,1.6137,0.6321,9.0309,0.0005,-0.1700,-0.0088,0
2.456053,1.7047,0.7135,9.2464,-0.0077,-0.1823,-0.0168,0
2.460370,1.6759,0.7135,9.2081,-0.0187,-0.1892,-0.0109,0
2.463470,1.6759,0.6656,9.3039,-0.0208,-0.2017,-0.0112,0
2.466822,1.5993,0.6847,9.3039,-0.0288,-0.2094,-0.0125,0
2.469847,1.5419,0.6943,9.2991,-0.0298,-0.2236,-0.0171,0
2.474134,1.5514,0.6704,9.2560,-0.0461,-0.2268,-0.0163,0
2.477814,1.4748,0.6225,9.2560,-0.0466,-0.2297,-0.0109,0
2.480996,1.3551,0.6081,9.2895,-0.0546,-0.2348,-0.0115,0
2.484315,1.3503,0.6177,9.2943,-0.0616,-0.2454,0.0003,0
2.489837,1.3695,0.5555,9.2895,-0.0690,-0.2465,0.0037,0
2.493602,1.4078,0.5507,9.3613,-0.0738,-0.2497,0.0064,0
2.496674,1.4222,0.5602,9.4044,-0.0757,-0.2523,0.0136,0
2.500070,1.4892,0.5842,9.3901,-0.0762,-0.2574,0.0160,0
2.503064,1.5371,0.5650,9.5337,-0.0829,-0.2627,0.0160,0
2.506504,1.6041,0.5124,9.4379,-0.0887,-0.2710,0.0192,0
2.511208,1.6281,0.5267,9.5193,-0.0882,-0.2713,0.0173,0
2.514358,1.6520,0.5411,9.6055,-0.0909,-0.2705,0.0165,0
2.517529,1.7286,0.5459,9.6151,-0.0906,-0.2822,0.0157,0
2.522483,1.7813,0.5363,9.6822,-0.0938,-0.2899,0.0149,0
2.526513,1.8627,0.4980,9.6534,-0.0986,-0.2942,0.0181,0
2.529558,1.8818,0.5555,9.6486,-0.0978,-0.2923,0.0112,0
2.532863,1.9393,0.4836,9.6869,-0.1015,-0.2974,0.0139,0
2.535822,1.9680,0.5411,9.6534,-0.0967,-0.3043,0.0131,0
2.538945,1.9680,0.4932,9.7109,-0.0938,-0.3126,0.0109,0
2.543685,2.0063,0.5890,9.7827,-0.0967,-0.3126,0.0107,0
2.546860,2.0255,0.5507,9.7013,-0.0967,-0.3147,0.0109,0
2.550079,2.0686,0.5890,9.7492,-0.0890,-0.3214,0.0021,0
2.553710,2.0590,0.6177,9.8114,-0.0829,-0.3309,0.0093,0
2.558855,2.0207,0.6416,9.8689,-0.0749,-0.3309,0.0123,0
2.562098,1.9920,0.6560,9.8114,-0.0685,-0.3379,0.0096,0
2.565199,1.9968,0.7374,9.9072,-0.0626,-0.3405,0.0120,0
2.568362,2.0542,0.7566,9.9216,-0.0594,-0.3491,0.0173,0
2.571414,2.0782,0.7805,9.9216,-0.0509,-0.3501,0.0149,0
2.576727,2.0638,0.8092,9.9359,-0.0341,-0.3509,0.0200,0
2.579979,2.0446,0.8667,9.9695,-0.0349,-0.3549,0.0264,0
2.583323,2.1261,0.8763,9.9072,-0.0200,-0.3571,0.0312,0
2.586990,2.0830,0.8380,9.9024,-0.0059,-0.3571,0.0306,0
2.592347,2.0734,0.8380,9.8737,0.0027,-0.3597,0.0370,0
2.595529,2.1213,0.9050,9.8114,0.0123,-0.3603,0.0333,0
2.598691,2.1739,0.9242,9.7971,0.0229,-0.3565,0.0384,0
2.601866,2.0973,0.9385,9.8545,0.0269,-0.3579,0.0378,0
2.604875,2.1548,0.9625,9.7971,0.0317,-0.3592,0.0429,0
2.610017,2.2170,0.9242,9.7683,0.0448,-0.3568,0.0453,0
2.613366,2.1979,0.9290,9.7731,0.0501,-0.3512,0.0498,0
2.616485,2.2889,1.0104,9.7731,0.0533,-0.3475,0.0498,0
2.619931,2.2170,1.0487,9.7205,0.0610,-0.3411,0.0432,0
2.625284,2.2793,1.0487,9.6917,0.0703,-0.3349,0.0512,0
2.628482,2.3703,1.0582,9.6534,0.0730,-0.3312,0.0485,0
2.631584,2.3463,1.0199,9.6343,0.0778,-0.3182,0.0541,0
2.639211,2.4038,1.0487,9.5241,0.0813,-0.3195,0.0533,0
2.643774,2.3894,1.0582,9.4523,0.0799,-0.3115,0.0578,0
2.646964,2.4421,1.0965,9.4044,0.0829,-0.3099,0.0600,0
2.650034,2.4612,1.0487,9.3948,0.0783,-0.3054,0.0621,0
2.654079,2.5091,1.1109,9.3661,0.0725,-0.3019,0.0669,0
2.658172,2.5474,1.1157,9.2991,0.0783,-0.3016,0.0666,0
2.661373,2.5905,1.0870,9.3326,0.0738,-0.2936,0.0703,0
2.664545,2.6145,1.1349,9.2273,0.0738,-0.2920,0.0789,0
2.667637,2.5857,1.0822,9.2177,0.0717,-0.2928,0.0765,0
2.670592,2.6911,1.1540,9.1746,0.0621,-0.2891,0.0762,0
2.674411,2.7054,1.1492,9.1459,0.0608,-0.2891,0.0773,0
2.678160,2.8156,1.1732,9.0405,0.0562,-0.2875,0.0725,0
2.681369,2.8587,1.1301,9.0022,0.0480,-0.2867,0.0762,0
2.684749,2.8587,1.1013,9.0166,0.0434,-0.2790,0.0754,0
2.689225,2.9018,1.1492,8.9926,0.0266,-0.2830,0.0698,0
2.693579,2.8778,1.1444,9.0070,0.0266,-0.2745,0.0669,0
2.696595,2.9353,1.2546,8.9543,0.0179,-0.2747,0.0695,0
2.699942,2.8922,1.1923,8.9495,0.0163,-0.2721,0.0687,0
2.702883,2.9257,1.2306,8.9591,0.0053,-0.2678,0.0602,0
2.706132,2.8826,1.2498,8.9399,-0.0059,-0.2699,0.0608,0
2.710562,2.9497,1.2737,9.0022,-0.0101,-0.2643,0.0597,0
2.713777,2.8970,1.2785,8.8777,-0.0184,-0.2507,0.0597,0
2.716914,2.9209,1.3168,8.9016,-0.0160,-0.2539,0.0554,0
2.720916,2.8874,1.2881,9.0022,-0.0312,-0.2499,0.0552,0
2.725071,2.8683,1.3264,8.9208,-0.0424,-0.2467,0.0530,0
2.728224,2.9066,1.3791,8.9352,-0.0416,-0.2401,0.0517,0
2.731416,2.8970,1.3838,8.9591,-0.0410,-0.2377,0.0506,0
2.734498,2.8587,1.4988,8.9974,-0.0504,-0.2345,0.0541,0
2.737414,2.9066,1.4030,8.9352,-0.0517,-0.2364,0.0469,0
2.741810,2.8491,1.4796,8.9974,-0.0493,-0.2313,0.0560,0
2.745560,2.8156,1.4653,8.9208,-0.0573,-0.2254,0.0504,0
2.748668,2.8443,1.4988,8.9974,-0.0554,-0.2180,0.0490,0
2.751893,2.8395,1.4988,9.0070,-0.0562,-0.2188,0.0533,0
2.756118,2.8252,1.4892,8.9830,-0.0608,-0.2097,0.0506,0
2.760029,2.8443,1.4509,8.9783,-0.0554,-0.2070,0.0538,0
2.763002,2.7533,1.3647,9.0022,-0.0573,-0.2100,0.0506,0
2.766294,2.7533,1.3120,8.9830,-0.0661,-0.2022,0.0554,0
2.769319,2.7342,1.4030,8.9783,-0.0642,-0.1900,0.0592,0
2.772523,2.6624,1.3024,9.0214,-0.0751,-0.1783,0.0589,0
2.776971,2.6719,1.2689,9.0740,-0.0674,-0.1740,0.0586,0
2.780205,2.6240,1.2354,9.0836,-0.0725,-0.1671,0.0576,0
2.783335,2.6671,1.1253,9.1267,-0.0775,-0.1612,0.0570,0
2.787164,2.5809,1.0918,9.1746,-0.0826,-0.1436,0.0618,0
2.791188,2.5139,1.0391,9.2129,-0.0879,-0.1322,0.0608,0
2.794550,2.5522,0.9864,9.2512,-0.0895,-0.1194,0.0632,0
2.797523,2.4708,0.9002,9.2799,-0.1010,-0.1130,0.0589,0
2.800483,2.4421,0.8523,9.3278,-0.1130,-0.0981,0.0597,0
2.803891,2.3750,0.7422,9.3613,-0.1194,-0.0810,0.0597,0
2.808217,2.2889,0.7087,9.4427,-0.1242,-0.0613,0.0600,0
2.811571,2.1979,0.6273,9.5193,-0.1343,-0.0464,0.0589,0
2.814719,2.1356,0.5890,9.5577,-0.1455,-0.0298,0.0600,0
2.818099,2.0830,0.5459,9.5624,-0.1583,-0.0024,0.0637,0
2.822463,2.1069,0.5219,9.6869,-0.1652,0.0221,0.0674,0
2.826371,1.9824,0.4262,9.7396,-0.1799,0.0389,0.0655,0
2.829404,1.9776,0.4310,9.7875,-0.1833,0.0637,0.0709,0
2.832891,1.8771,0.4405,9.8402,-0.1905,0.0861,0.0690,0
2.835894,1.8579,0.3208,9.9455,-0.1953,0.1087,0.0725,0
2.839492,1.8818,0.3639,9.9982,-0.1974,0.1322,0.0738,0
2.844426,1.8627,0.3926,10.0604,-0.2097,0.1551,0.0770,0
2.847537,1.8771,0.3112,10.1083,-0.2028,0.1753,0.0818,0
2.850689,1.7765,0.3783,10.1658,-0.2065,0.2017,0.0815,0
2.855953,1.8387,0.4022,10.1754,-0.1958,0.2249,0.0805,0
2.859891,1.8435,0.4214,10.2185,-0.1972,0.2417,0.0826,0
2.862890,1.7717,0.4310,10.2089,-0.1884,0.2515,0.0855,0
2.866393,1.8100,0.4166,10.2280,-0.1863,0.2646,0.0855,0
2.869366,1.7957,0.4932,10.2520,-0.1745,0.2795,0.0887,0
2.873113,1.7813,0.4597,10.2615,-0.1609,0.2931,0.0911,0
2.877932,1.8244,0.4405,10.2951,-0.1514,0.3022,0.0895,0
2.881048,1.8004,0.5267,10.2951,-0.1378,0.3091,0.0943,0
2.884287,1.8244,0.4453,10.2089,-0.1279,0.3166,0.0943,0
2.889355,1.8627,0.4549,10.1562,-0.1026,0.3142,0.0927,0
2.893441,1.9345,0.4980,10.1466,-0.0890,0.3211,0.0935,0
2.896447,1.9345,0.5028,10.1179,-0.0839,0.3179,0.0935,0
2.899629,1.9585,0.4884,10.0940,-0.0733,0.3112,0.1007,0
2.902589,2.0255,0.5028,10.0221,-0.0578,0.3104,0.1002,0
2.905825,2.0734,0.4788,10.0556,-0.0346,0.2982,0.1029,0
2.910157,2.1069,0.5315,9.9647,-0.0253,0.2896,0.0983,0
2.913449,2.1308,0.4693,9.9024,-0.0149,0.2766,0.1005,0
2.916525,2.2218,0.4741,9.8497,-0.0059,0.2606,0.1018,0
2.920502,2.1644,0.4501,9.8928,0.0163,0.2462,0.0983,0
2.924700,2.1787,0.5028,9.7923,0.0184,0.2334,0.0981,0
2.927887,2.2314,0.4788,9.7300,0.0282,0.2172,0.0941,0
2.931058,2.2218,0.4310,9.7875,0.0296,0.2025,0.0909,0
2.934248,2.2458,0.4310,9.6822,0.0384,0.1879,0.0933,0
2.937223,2.2649,0.4884,9.6582,0.0413,0.1740,0.0901,0
2.941207,2.2410,0.4645,9.6486,0.0480,0.1474,0.0826,0
2.945320,2.2553,0.5219,9.5481,0.0536,0.1303,0.0802,0
2.948510,2.2601,0.5267,9.5529,0.0485,0.1164,0.0719,0
2.951747,2.2505,0.5171,9.5050,0.0570,0.0997,0.0698,0
2.956018,2.1739,0.5794,9.4715,0.0498,0.0775,0.0682,0
2.959830,2.2027,0.5938,9.4332,0.0469,0.0624,0.0632,0
2.962828,2.1452,0.6704,9.4140,0.0482,0.0477,0.0594,0
2.966075,2.0973,0.7374,9.3565,0.0525,0.0368,0.0536,0
2.969046,2.1117,0.7230,9.3422,0.0456,0.0240,0.0517,0
2.972118,2.0590,0.7566,9.3805,0.0400,-0.0016,0.0493,0
2.976249,2.0542,0.8188,9.3182,0.0394,-0.0115,0.0485,0
2.979548,2.0111,0.8092,9.2847,0.0354,-0.0245,0.0426,0
2.982679,2.0063,0.8571,9.2703,0.0269,-0.0312,0.0453,0
2.985807,2.0686,0.8906,9.2703,0.0301,-0.0584,0.0397,0
2.990317,2.0159,0.9481,9.2799,0.0176,-0.0727,0.0394,0
2.994205,2.0159,1.0534,9.1650,0.0216,-0.0877,0.0405,0
2.997236,2.0063,1.0534,9.2033,0.0149,-0.0997,0.0405,0
3.000520,2.0399,1.1540,9.1602,0.0125,-0.1194,0.0394,0
3.003487,2.0351,1.2115,9.1506,0.0059,-0.1319,0.0360,0
3.007898,2.0973,1.2594,9.2033,0.0056,-0.1522,0.0373,0
3.011451,2.0638,1.3168,9.1506,0.0077,-0.1612,0.0346,0
3.014549,2.0638,1.3360,9.1123,0.0024,-0.1825,0.0317,0
3.017682,2.0782,1.2833,9.1363,0.0032,-0.1937,0.0317,0
3.022770,2.0303,1.3599,9.1171,0.0008,-0.2102,0.0320,0
3.026861,2.0159,1.3934,9.1602,-0.0037,-0.2180,0.0285,0
3.029995,2.0159,1.4078,9.0932,-0.0027,-0.2294,0.0269,0
3.033365,2.0351,1.4509,9.1602,-0.0061,-0.2425,0.0274,0
3.036355,2.0446,1.4126,9.1028,-0.0107,-0.2467,0.0272,0
3.039801,1.9872,1.4413,9.1459,-0.0112,-0.2593,0.0224,0
3.044502,1.9632,1.4605,9.1506,-0.0107,-0.2659,0.0229,0
3.047579,2.0111,1.4605,9.1794,-0.0155,-0.2691,0.0187,0
3.050731,1.9537,1.4078,9.1315,-0.0155,-0.2755,0.0181,0
3.055919,1.9824,1.4557,9.1842,-0.0141,-0.2803,0.0208,0
3.059822,1.9249,1.4461,9.1075,-0.0184,-0.2825,0.0189,0
3.062819,1.9201,1.4748,9.1602,-0.0187,-0.2864,0.0234,0
3.066222,1.9106,1.4461,9.1602,-0.0139,-0.2872,0.0205,0
3.069213,1.8866,1.4509,9.1459,-0.0128,-0.2886,0.0176,0
3.072455,1.9154,1.3599,9.2033,-0.0160,-0.2854,0.0205,0
3.076742,1.9058,1.4605,9.1123,-0.0144,-0.2785,0.0163,0
3.079914,1.8675,1.3551,9.1554,-0.0131,-0.2771,0.0197,0
3.083129,1.8723,1.3312,9.1171,-0.0149,-0.2761,0.0155,0
3.087061,1.8340,1.3360,9.0980,-0.0171,-0.2689,0.0168,0
3.091003,1.8292,1.2689,9.1123,-0.0125,-0.2553,0.0139,0
3.094350,1.8292,1.2737,9.1075,-0.0181,-0.2465,0.0149,0
3.097485,1.7909,1.2785,9.1602,-0.0141,-0.2390,0.0131,0
3.100636,1.8148,1.2546,9.1267,-0.0080,-0.2316,0.0115,0
3.103591,1.7717,1.2306,9.1315,-0.0147,-0.2217,0.0123,0
3.107764,1.7669,1.1444,9.1315,-0.0168,-0.2070,0.0115,0
3.111335,1.8866,1.0870,9.1267,-0.0101,-0.1948,0.0083,0
3.114413,1.8244,1.0630,9.1219,-0.0136,-0.1873,0.0115,0
3.117595,1.8675,1.0582,9.1075,-0.0117,-0.1751,0.0131,0
3.122666,1.9968,0.9481,9.1315,-0.0128,-0.1572,0.0157,0
3.126650,1.8962,0.9385,9.1554,-0.0144,-0.1524,0.0141,0
3.129661,1.9680,0.9577,9.1985,-0.0160,-0.1407,0.0197,0
3.133077,2.0303,0.8619,9.1363,-0.0187,-0.1370,0.0171,0
3.136018,2.0877,0.8236,9.1937,-0.0203,-0.1252,0.0258,0
3.139313,2.0686,0.7566,9.1650,-0.0208,-0.1140,0.0250,0
3.144021,2.1787,0.6943,9.1075,-0.0112,-0.1061,0.0301,0
3.147330,2.2122,0.6752,9.1889,-0.0176,-0.1021,0.0325,0
3.150494,2.2553,0.7039,9.1219,-0.0213,-0.0986,0.0328,0
3.155717,2.4134,0.6416,9.1315,-0.0205,-0.0901,0.0418,0
3.159555,2.4086,0.6129,9.2129,-0.0211,-0.0869,0.0389,0
3.162571,2.4086,0.5602,9.2177,-0.0248,-0.0797,0.0448,0
3.165877,2.5235,0.5076,9.1889,-0.0242,-0.0815,0.0434,0
3.168892,2.5379,0.5076,9.2033,-0.0224,-0.0818,0.0482,0
3.172009,2.5283,0.4501,9.1650,-0.0370,-0.0698,0.0416,0
3.176470,2.6001,0.4022,9.1602,-0.0304,-0.0693,0.0450,0
3.179612,2.6480,0.3400,9.1937,-0.0386,-0.0645,0.0469,0
3.182681,2.5666,0.3783,9.2177,-0.0392,-0.0621,0.0437,0
3.186169,2.5809,0.3639,9.2799,-0.0426,-0.0605,0.0440,0
3.191842,2.6145,0.3065,9.2799,-0.0493,-0.0506,0.0482,0
3.195087,2.6097,0.3017,9.3039,-0.0506,-0.0557,0.0434,0
3.198548,2.6624,0.2825,9.3326,-0.0538,-0.0450,0.0437,0
3.202030,2.6911,0.2251,9.3182,-0.0554,-0.0424,0.0434,0
3.205379,2.6097,0.2394,9.4188,-0.0648,-0.0336,0.0450,0
3.209917,2.5905,0.1915,9.3948,-0.0655,-0.0314,0.0429,0
3.213083,2.6193,0.2921,9.4092,-0.0717,-0.0336,0.0424,0
3.216130,2.6671,0.1820,9.4379,-0.0738,-0.0245,0.0453,0
3.220611,2.6671,0.2682,9.4092,-0.0794,-0.0211,0.0410,0
3.224791,2.6863,0.2442,9.5193,-0.0802,-0.0208,0.0405,0
3.227979,2.7007,0.2969,9.5385,-0.0866,-0.0173,0.0458,0
3.231056,2.7198,0.2825,9.5289,-0.0842,-0.0160,0.0429,0
3.234252,2.7533,0.3256,9.5720,-0.0842,-0.0141,0.0442,0
3.237198,2.7198,0.3783,9.5864,-0.0855,-0.0096,0.0461,0
3.241340,2.8108,0.3974,9.6582,-0.0807,-0.0144,0.0402,0
3.244961,2.7677,0.3783,9.6965,-0.0799,-0.0144,0.0448,0
3.248105,2.8299,0.4741,9.6438,-0.0855,-0.0136,0.0488,0
3.251460,2.8156,0.5411,9.7252,-0.0815,-0.0115,0.0440,0
3.255806,2.7821,0.5938,9.6534,-0.0791,-0.0104,0.0485,0
3.259655,2.7438,0.6464,9.7300,-0.0810,-0.0109,0.0461,0
3.262626,2.7198,0.6943,9.6391,-0.0767,-0.0067,0.0469,0
3.266017,2.7246,0.7518,9.6295,-0.0714,-0.0064,0.0466,0
3.269023,2.6576,0.7374,9.6247,-0.0725,-0.0083,0.0434,0
3.272206,2.6528,0.7326,9.6055,-0.0687,-0.0019,0.0432,0
3.277043,2.6336,0.7997,9.6055,-0.0610,-0.0019,0.0416,0
3.280273,2.6145,0.7901,9.5433,-0.0695,0.0043,0.0408,0
3.283381,2.6528,0.8763,9.5337,-0.0592,0.0029,0.0381,0
3.287419,2.5283,0.8763,9.5337,-0.0578,0.0056,0.0408,0
3.291555,2.5283,0.8571,9.4906,-0.0512,0.0085,0.0373,0
3.294709,2.5331,0.8619,9.4523,-0.0552,0.0080,0.0408,0
3.297891,2.5187,0.8906,9.4427,-0.0477,0.0037,0.0400,0
3.301162,2.5235,0.9864,9.3757,-0.0488,0.0107,0.0432,0
3.304238,2.4756,0.9433,9.4284,-0.0456,0.0104,0.0432,0
3.309370,2.4852,0.9768,9.3948,-0.0376,0.0101,0.0490,0
3.312591,2.4277,0.9337,9.3374,-0.0397,0.0147,0.0514,0
3.315645,2.3942,0.9577,9.2656,-0.0397,0.0157,0.0589,0
3.319290,2.3798,0.9002,9.2751,-0.0360,0.0152,0.0634,0
3.324831,2.3798,0.9194,9.2608,-0.0389,0.0160,0.0709,0
3.328078,2.3463,0.8954,9.1937,-0.0397,0.0163,0.0738,0
3.331304,2.2793,0.8475,9.1985,-0.0440,0.0163,0.0810,0
3.334531,2.3224,0.8859,9.0740,-0.0469,0.0211,0.0855,0
3.337564,2.3176,0.8140,9.0501,-0.0434,0.0173,0.0898,0
3.342700,2.3798,0.7757,8.9783,-0.0525,0.0155,0.0954,0
3.345972,2.4038,0.7518,9.0118,-0.0520,0.0099,0.0994,0
3.349046,2.4612,0.7949,8.9256,-0.0597,0.0120,0.1007,0
3.352555,2.4565,0.7039,8.8825,-0.0709,0.0107,0.1066,0
3.358026,2.4708,0.6847,8.9064,-0.0757,0.0093,0.1045,0
3.361417,2.5953,0.6704,8.8490,-0.0831,0.0056,0.1061,0
3.364541,2.6480,0.6464,8.8585,-0.0877,0.0067,0.1026,0
3.367626,2.5953,0.7087,8.9112,-0.0938,0.0045,0.1010,0
3.370572,2.7198,0.6752,8.8442,-0.1018,-0.0003,0.0941,0
3.374535,2.7725,0.6800,8.8538,-0.1087,-0.0096,0.0933,0
3.378591,2.8491,0.6608,8.8969,-0.1191,-0.0083,0.0847,0
3.381775,2.8491,0.6656,8.8921,-0.1175,-0.0120,0.0789,0
3.385162,2.8252,0.6943,8.9399,-0.1364,-0.0226,0.0783,0
3.389571,2.8778,0.6608,8.9256,-0.1399,-0.0269,0.0626,0
3.393446,2.8635,0.7039,8.9687,-0.1495,-0.0277,0.0586,0
3.396462,2.8491,0.8045,8.9926,-0.1532,-0.0354,0.0528,0
3.399864,2.8778,0.7709,9.0261,-0.1527,-0.0376,0.0384,0
3.402862,2.8539,0.8236,9.0836,-0.1625,-0.0440,0.0314,0
3.406668,2.8299,0.8188,9.1746,-0.1676,-0.0490,0.0240,0
3.411541,2.7294,0.9337,9.2608,-0.1695,-0.0517,0.0181,0
3.414708,2.7150,0.9385,9.2991,-0.1740,-0.0549,0.0109,0
3.417892,2.7533,0.9194,9.3039,-0.1711,-0.0586,0.0080,0
3.423048,2.6288,0.9768,9.4044,-0.1721,-0.0634,0.0003,0
3.426953,2.5043,0.9242,9.4523,-0.1695,-0.0653,0.0067,0
3.430151,2.5283,0.9816,9.5433,-0.1668,-0.0711,0.0051,0
3.433545,2.4756,0.9864,9.5193,-0.1649,-0.0735,0.0035,0
3.436494,2.3176,0.8954,9.5146,-0.1609,-0.0743,0.0080,0
3.445133,2.2601,0.8284,9.6055,-0.1556,-0.0767,0.0131,0
3.448828,2.2075,0.9290,9.7013,-0.1556,-0.0674,0.0195,0
3.452166,2.2314,0.7997,9.6822,-0.1508,-0.0695,0.0232,0
3.456255,2.1596,0.8619,9.7348,-0.1516,-0.0648,0.0354,0
3.459991,2.1356,0.7326,9.7252,-0.1428,-0.0645,0.0413,0
3.462991,2.0734,0.6943,9.6343,-0.1434,-0.0661,0.0442,0
3.466572,2.1021,0.6800,9.7540,-0.1380,-0.0592,0.0480,0
3.469535,2.0638,0.7278,9.7971,-0.1396,-0.0589,0.0562,0
3.473244,2.1691,0.6800,9.8162,-0.1303,-0.0552,0.0682,0
3.478085,2.2075,0.6991,9.8162,-0.1263,-0.0562,0.0679,0
3.481192,2.2841,0.7230,9.8545,-0.1290,-0.0576,0.0799,0
3.484349,2.2889,0.6369,9.8545,-0.1191,-0.0549,0.0858,0
3.488190,2.3080,0.5315,9.7540,-0.1191,-0.0581,0.0909,0
3.492331,2.1787,0.3687,9.7636,-0.1140,-0.0565,0.0978,0
3.495589,2.1452,0.3496,9.7396,-0.1159,-0.0498,0.1034,0
3.498887,2.1356,0.3112,9.7396,-0.1180,-0.0538,0.1066,0
3.501902,2.1883,0.2825,9.7109,-0.1186,-0.0466,0.1135,0
3.505312,2.2266,0.2155,9.6391,-0.1215,-0.0424,0.1127,0
3.510125,1.8723,-0.1101,9.4427,-0.1215,-0.0325,0.1175,0
3.513700,1.6233,-0.2682,9.1123,-0.1335,-0.0157,0.1202,0
3.517052,1.9968,-0.2442,9.1363,-0.1378,-0.0149,0.1188,0
3.520899,2.1308,0.0000,9.4475,-0.1431,0.0048,0.1204,0
3.525038,2.2793,-0.1006,9.2847,-0.1399,0.0093,0.1172,0
3.528180,2.3272,-0.1293,9.2081,-0.1503,0.0155,0.1111,0
3.531386,2.4134,-0.2203,9.1842,-0.1548,0.0213,0.0973,0
3.534484,2.4086,-0.1437,9.2273,-0.1535,0.0213,0.0919,0
3.537432,2.4565,-0.1245,9.2895,-0.1572,0.0248,0.0858,0
3.541406,2.7390,-0.0910,9.1985,-0.1553,0.0320,0.0762,0
3.545056,2.6767,-0.1724,9.2560,-0.1529,0.0285,0.0701,0
3.548159,2.6432,-0.0814,9.1842,-0.1553,0.0288,0.0637,0
3.551547,2.8012,-0.0527,9.2225,-0.1484,0.0309,0.0402,0
3.555901,2.8395,-0.0814,9.3470,-0.1460,0.0261,0.0266,0
3.559785,2.6911,-0.0718,9.4284,-0.1375,0.0213,0.0187,0
3.562756,2.8347,-0.1245,9.4092,-0.1338,0.0234,0.0075,0
3.566026,2.8491,-0.1341,9.4140,-0.1295,0.0264,-0.0061,0
3.568998,2.7246,-0.0814,9.5050,-0.1244,0.0213,-0.0091,0
3.572148,2.6528,-0.1963,9.5050,-0.1143,0.0213,-0.0168,0
3.576640,2.6097,-0.2203,9.5720,-0.1039,0.0314,-0.0213,0
3.579795,2.4469,-0.2634,9.6247,-0.0989,0.0221,-0.0253,0
3.582932,2.3607,-0.2059,9.5433,-0.0903,0.0269,-0.0362,0
3.586189,2.3942,-0.2538,9.5433,-0.0770,0.0354,-0.0421,0
3.590535,2.2793,-0.3208,9.6007,-0.0663,0.0378,-0.0432,0
3.594313,2.2936,-0.3496,9.5385,-0.0685,0.0440,-0.0461,0
3.597457,2.2745,-0.3208,9.5912,-0.0557,0.0474,-0.0474,0
3.600596,2.2170,-0.3352,9.6055,-0.0450,0.0522,-0.0472,0
3.603507,2.1931,-0.3065,9.5768,-0.0320,0.0618,-0.0461,0
3.608642,2.3224,-0.2634,9.5385,-0.0216,0.0608,-0.0461,0
3.612398,2.2841,-0.1867,9.5960,-0.0168,0.0706,-0.0525,0
3.615514,2.3367,-0.2777,9.6055,-0.0037,0.0701,-0.0618,0
3.618726,2.4229,-0.2155,9.5624,0.0013,0.0738,-0.0610,0
3.623133,2.4517,-0.2251,9.4667,0.0213,0.0754,-0.0653,0
3.627036,2.4421,-0.2538,9.4284,0.0256,0.0757,-0.0632,0
3.630082,2.5139,-0.3065,9.4715,0.0381,0.0778,-0.0695,0
3.633627,2.4852,-0.2634,9.3805,0.0418,0.0722,-0.0759,0
3.636575,2.4756,-0.2634,9.3470,0.0501,0.0749,-0.0791,0
3.639773,2.5283,-0.3304,9.1794,0.0501,0.0709,-0.0837,0
3.644284,2.5091,-0.3639,9.1075,0.0570,0.0762,-0.0863,0
3.647508,2.4804,-0.4070,9.0549,0.0608,0.0722,-0.0914,0
3.650538,2.5426,-0.4022,8.9878,0.0624,0.0703,-0.0962,0
3.653871,2.5762,-0.3974,8.9016,0.0669,0.0703,-0.0959,0
3.659024,2.5905,-0.4788,8.7819,0.0706,0.0584,-0.1039,0
3.662201,2.5905,-0.4980,8.7819,0.0637,0.0581,-0.1034,0
3.665316,2.6240,-0.5794,8.7388,0.0653,0.0506,-0.1023,0
3.668473,2.7198,-0.5363,8.6431,0.0621,0.0434,-0.1015,0
3.671443,2.6767,-0.5650,8.6191,0.0578,0.0352,-0.1034,0
3.675321,2.6815,-0.5842,8.5808,0.0589,0.0280,-0.1045,0
3.678951,2.6528,-0.5555,8.5186,0.0496,0.0213,-0.1053,0
3.682091,2.7198,-0.5698,8.4707,0.0474,0.0168,-0.1079,0
3.685283,2.7007,-0.5746,8.4467,0.0389,0.0067,-0.1069,0
3.690496,2.6671,-0.6512,8.3701,0.0338,-0.0003,-0.1066,0
3.694271,2.6384,-0.7087,8.2696,0.0232,-0.0123,-0.1119,0
3.697340,2.5522,-0.6895,8.3175,0.0144,-0.0160,-0.1085,0
3.700653,2.6480,-0.5890,8.2600,0.0000,-0.0187,-0.1172,0
3.703591,2.6480,-0.5890,8.3031,-0.0013,-0.0221,-0.1202,0
3.707112,2.6432,-0.6129,8.2456,-0.0192,-0.0312,-0.1212,0
3.711985,2.6480,-0.5602,8.3222,-0.0274,-0.0386,-0.1244,0
3.715409,2.6911,-0.4549,8.3366,-0.0352,-0.0408,-0.1276,0
3.718706,2.6384,-0.4836,8.3462,-0.0424,-0.0520,-0.1338,0
3.723372,2.7533,-0.4262,8.3366,-0.0520,-0.0520,-0.1372,0
3.727012,2.7294,-0.3496,8.3989,-0.0600,-0.0533,-0.1420,0
3.730106,2.7150,-0.3591,8.3797,-0.0685,-0.0663,-0.1431,0
3.733483,2.6959,-0.3496,8.4132,-0.0783,-0.0666,-0.1490,0
3.736515,2.7007,-0.3591,8.4180,-0.0781,-0.0693,-0.1532,0
3.739951,2.6145,-0.2777,8.4803,-0.0949,-0.0813,-0.1561,0
3.744661,2.6145,-0.2442,8.5617,-0.0967,-0.0783,-0.1543,0
3.747755,2.6193,-0.2586,8.6383,-0.0986,-0.0829,-0.1556,0
3.750930,2.6049,-0.2107,8.6766,-0.1124,-0.0831,-0.1529,0
3.756113,2.6432,-0.1484,8.7340,-0.1138,-0.0959,-0.1540,0
3.759989,2.6671,-0.1772,8.8011,-0.1188,-0.0906,-0.1537,0
3.762979,2.6288,-0.0766,8.8442,-0.1250,-0.0943,-0.1511,0
3.766174,2.6528,-0.0670,8.8729,-0.1266,-0.0949,-0.1439,0
3.769155,2.6719,-0.0287,9.0309,-0.1287,-0.1029,-0.1442,0
3.772293,2.6767,0.0096,9.1075,-0.1266,-0.1092,-0.1420,0
3.776479,2.6959,-0.0096,9.1075,-0.1290,-0.1085,-0.1434,0
3.779681,2.7581,0.0479,9.2320,-0.1316,-0.1087,-0.1319,0
3.782767,2.7725,0.0479,9.2608,-0.1292,-0.1154,-0.1348,0
3.786080,2.7342,0.0335,9.3278,-0.1263,-0.1178,-0.1298,0
3.790156,2.7725,0.0670,9.3853,-0.1348,-0.1124,-0.1231,0
3.793830,2.7916,0.0862,9.3613,-0.1298,-0.1154,-0.1260,0
3.796925,2.8491,0.0958,9.4188,-0.1308,-0.1154,-0.1231,0
3.799939,2.7294,0.0527,9.4523,-0.1295,-0.1170,-0.1231,0
3.802839,2.7342,0.0287,9.5002,-0.1322,-0.1172,-0.1191,0
3.806466,2.7007,0.0814,9.5385,-0.1335,-0.1119,-0.1151,0
3.810893,2.6815,0.0431,9.5816,-0.1306,-0.1124,-0.1116,0
3.814167,2.6767,0.0335,9.5433,-0.1327,-0.1037,-0.1108,0
3.817241,2.6624,0.0431,9.6199,-0.1356,-0.1007,-0.1034,0
3.820809,2.6480,0.0096,9.6965,-0.1418,-0.0898,-0.0954,0
3.825966,2.6863,0.0862,9.7061,-0.1378,-0.0869,-0.0935,0
3.829154,2.6911,0.1293,9.6869,-0.1479,-0.0802,-0.0885,0
3.832316,2.7677,0.0622,9.6534,-0.1396,-0.0770,-0.0885,0
3.835486,2.6767,0.1053,9.6965,-0.1471,-0.0719,-0.0834,0
3.838471,2.7533,0.1149,9.7636,-0.1420,-0.0666,-0.0765,0
3.842330,2.7821,0.0622,9.5912,-0.1439,-0.0605,-0.0751,0
3.846026,2.7629,0.0670,9.5050,-0.1500,-0.0621,-0.0733,0
3.849208,2.7916,0.1245,9.5912,-0.1471,-0.0592,-0.0645,0
3.852412,2.7677,0.0335,9.5146,-0.1537,-0.0453,-0.0626,0
3.856968,2.7581,0.2107,9.5433,-0.1537,-0.0429,-0.0671,0
3.860726,2.6480,0.3065,9.5050,-0.1529,-0.0325,-0.0602,0
3.863747,2.6001,0.2155,9.5193,-0.1522,-0.0314,-0.0586,0
3.867016,2.5570,0.2394,9.5241,-0.1535,-0.0261,-0.0592,0
3.870019,2.5235,0.3065,9.5146,-0.1452,-0.0117,-0.0594,0
3.873465,2.4612,0.3400,9.3661,-0.1455,-0.0003,-0.0554,0
3.878214,2.3703,0.3112,9.3565,-0.1442,0.0093,-0.0621,0
3.881339,2.3990,0.3448,9.2464,-0.1450,0.0250,-0.0586,0
3.884523,2.2553,0.2873,9.3087,-0.1444,0.0365,-0.0541,0
3.888379,2.1739,0.3017,9.3230,-0.1394,0.0544,-0.0528,0
3.892534,2.2027,0.3065,9.2895,-0.1340,0.0674,-0.0552,0
3.895786,2.1213,0.3160,9.2943,-0.1388,0.0807,-0.0562,0
3.899207,2.0351,0.3208,9.2751,-0.1295,0.0986,-0.0453,0
3.902360,2.0255,0.2729,9.2464,-0.1386,0.1023,-0.0352,0
3.905517,2.0734,0.2490,9.2464,-0.1306,0.1180,-0.0237,0
3.909745,2.0925,0.2155,9.3134,-0.1362,0.1258,-0.0152,0
3.912945,2.1356,0.1963,9.2608,-0.1314,0.1367,-0.0029,0
3.916059,2.1356,0.1676,9.2560,-0.1322,0.1423,0.0208,0
3.919806,2.2266,0.2394,9.2464,-0.1354,0.1511,0.0405,0
3.925392,2.3367,0.2969,9.3470,-0.1367,0.1522,0.0538,0
3.928721,2.4086,0.3112,9.3805,-0.1364,0.1577,0.0645,0
3.931879,2.5235,0.3783,9.4475,-0.1327,0.1596,0.0735,0
3.934947,2.5905,0.3783,9.3948,-0.1431,0.1593,0.0869,0
3.937993,2.7102,0.4645,9.4332,-0.1463,0.1649,0.0855,0
3.943085,2.8443,0.4262,9.4379,-0.1556,0.1703,0.0895,0
3.946387,2.9066,0.4645,9.5146,-0.1556,0.1716,0.0917,0
3.949523,3.0311,0.4645,9.5481,-0.1559,0.1799,0.0815,0
3.954188,3.0550,0.4932,9.5672,-0.1705,0.1812,0.0749,0
3.958334,3.1412,0.5124,9.6247,-0.1748,0.1841,0.0743,0
3.961560,3.1508,0.6033,9.7252,-0.1785,0.1865,0.0618,0
3.964580,3.2274,0.6177,9.7923,-0.1785,0.1823,0.0552,0
3.967956,3.1987,0.6752,9.8833,-0.1751,0.1903,0.0453,0
3.970941,3.1412,0.7326,10.0365,-0.1727,0.1860,0.0450,0
3.974842,3.0885,0.7470,10.1035,-0.1700,0.1879,0.0384,0
3.978495,3.0358,0.7183,10.1514,-0.1623,0.1823,0.0338,0
3.981628,3.0023,0.7230,10.1179,-0.1599,0.1849,0.0296,0
3.985036,2.8874,0.6847,10.2376,-0.1476,0.1884,0.0258,0
3.989429,2.7246,0.6800,10.2137,-0.1402,0.1855,0.0226,0
3.993363,2.6959,0.6656,10.2280,-0.1306,0.1903,0.0264,0
3.996392,2.6671,0.5842,10.2424,-0.1247,0.1982,0.0256,0
3.999935,2.6001,0.6081,10.2185,-0.1172,0.2004,0.0195,0
4.002994,2.5618,0.5602,10.1801,-0.1079,0.1996,0.0200,0
4.006487,2.5474,0.5602,10.1897,-0.0906,0.2132,0.0165,0
4.010897,2.5379,0.5411,10.2041,-0.0834,0.2161,0.0072,0
4.014231,2.5857,0.5315,10.2951,-0.0733,0.2262,0.0040,0
4.017363,2.5905,0.6560,10.3334,-0.0530,0.2305,-0.0067,0
4.022317,2.6193,0.6081,10.4196,-0.0330,0.2406,-0.0195,0
4.026251,2.4181,0.6177,10.4196,-0.0258,0.2531,-0.0296,0
4.029487,2.3703,0.4836,10.4148,-0.0053,0.2587,-0.0365,0
4.033248,2.2793,0.4166,10.4435,0.0069,0.2651,-0.0464,0
4.036461,2.2697,0.3687,10.4435,0.0173,0.2795,-0.0501,0
4.039584,2.2936,0.2921,10.4962,0.0370,0.2817,-0.0589,0
4.043703,2.3367,0.3065,10.5010,0.0506,0.2894,-0.0706,0
4.047045,2.4181,0.2538,10.4818,0.0621,0.2987,-0.0751,0
4.050209,2.3703,0.2586,10.5728,0.0775,0.3040,-0.0818,0
4.054631,2.4612,0.2107,10.5249,0.0991,0.3155,-0.0938,0
4.058823,2.3894,0.1006,10.5584,0.1183,0.3134,-0.0954,0
4.062059,2.3176,0.0670,10.4722,0.1239,0.3195,-0.1015,0
4.065118,2.3511,-0.0335,10.4052,0.1330,0.3277,-0.1074,0
4.068557,2.2745,-0.1628,10.3908,0.1452,0.3296,-0.1119,0
4.071605,2.3128,-0.2442,10.3717,0.1450,0.3320,-0.1172,0
4.075791,2.2601,-0.3160,10.2472,0.1468,0.3376,-0.1191,0
4.079383,2.2889,-0.4405,10.2089,0.1522,0.3424,-0.1188,0
4.082511,2.2889,-0.5507,10.0461,0.1599,0.3461,-0.1151,0
4.085962,2.3367,-0.5746,10.0126,0.1535,0.3461,-0.1196,0
4.090577,2.3415,-0.6704,9.9503,0.1527,0.3515,-0.1146,0
4.094454,2.3846,-0.6416,9.9120,0.1511,0.3507,-0.1106,0
4.097493,2.4469,-0.7039,9.8258,0.1455,0.3448,-0.1103,0
4.101002,2.5187,-0.7709,9.7636,0.1402,0.3419,-0.1122,0
4.103975,2.4565,-0.7853,9.7061,0.1332,0.3419,-0.1114,0
4.108241,2.4660,-0.8380,9.5960,0.1236,0.3376,-0.1164,0
4.111792,2.4804,-0.8571,9.5289,0.1140,0.3333,-0.1159,0
4.114883,2.3942,-0.8859,9.4858,0.1146,0.3248,-0.1140,0
4.118385,2.4325,-0.9050,9.3374,0.0959,0.3293,-0.1079,0
4.122934,2.3846,-0.9529,9.2416,0.0853,0.3187,-0.1119,0
4.126858,2.3224,-1.0439,9.1459,0.0757,0.3112,-0.1183,0
4.129898,2.2745,-1.0104,9.1315,0.0570,0.3123,-0.1156,0
4.133193,2.1835,-0.9816,9.0836,0.0498,0.3006,-0.1188,0
4.136165,2.2170,-0.9673,9.0788,0.0429,0.3064,-0.1247,0
4.139411,2.1548,-0.9912,8.9926,0.0229,0.2955,-0.1303,0
4.143876,2.1404,-0.9385,8.9639,0.0160,0.3006,-0.1255,0
4.147105,2.1261,-0.8763,8.9447,0.0037,0.2888,-0.1364,0
4.150190,2.1452,-0.8954,8.9399,-0.0104,0.2883,-0.1394,0
4.154146,2.1069,-0.8284,8.9495,-0.0144,0.2838,-0.1428,0
4.158333,2.1069,-0.7757,8.9974,-0.0213,0.2753,-0.1410,0
4.161551,2.1404,-0.7470,9.0070,-0.0325,0.2731,-0.1482,0
4.164890,2.1548,-0.7949,9.0214,-0.0432,0.2627,-0.1463,0
4.168066,2.1979,-0.7230,9.0884,-0.0418,0.2555,-0.1434,0
4.171028,2.1835,-0.7374,9.1363,-0.0541,0.2499,-0.1463,0
4.174875,2.1979,-0.6943,9.2368,-0.0608,0.2316,-0.1450,0
4.178312,2.2649,-0.6560,9.2895,-0.0682,0.2217,-0.1386,0
4.181443,2.2936,-0.6656,9.2991,-0.0767,0.2110,-0.1351,0
4.185057,2.3128,-0.6129,9.3470,-0.0855,0.1935,-0.1282,0
4.189457,2.3176,-0.6369,9.3948,-0.0914,0.1745,-0.1186,0
4.193442,2.3990,-0.6225,9.4858,-0.0986,0.1585,-0.1130,0
4.196435,2.3990,-0.5411,9.4906,-0.1087,0.1455,-0.1069,0
4.199854,2.3990,-0.5555,9.5481,-0.1167,0.1247,-0.0999,0
4.202881,2.4948,-0.5938,9.5912,-0.1266,0.1106,-0.0986,0
4.206077,2.3846,-0.4788,9.6151,-0.1346,0.0951,-0.0895,0
4.210021,2.4373,-0.4932,9.6534,-0.1426,0.0837,-0.0874,0
4.213464,2.4181,-0.4597,9.6965,-0.1476,0.0610,-0.0826,0
4.216605,2.4708,-0.3926,9.7588,-0.1591,0.0506,-0.0794,0
4.219846,2.5379,-0.3687,9.7252,-0.1692,0.0301,-0.0733,0
4.224523,2.4277,-0.3352,9.8593,-0.1769,0.0147,-0.0679,0
4.228271,2.4756,-0.2969,9.8066,-0.1881,0.0037,-0.0674,0
4.231963,2.4325,-0.2155,9.9072,-0.1935,-0.0197,-0.0616,0
4.235606,2.3894,-0.1437,9.9982,-0.1958,-0.0344,-0.0573,0
4.238733,2.4181,-0.1293,9.9742,-0.1964,-0.0354,-0.0538,0
4.242184,2.3367,-0.0383,10.1083,-0.2038,-0.0743,-0.0450,0
4.250505,2.3463,0.0479,10.1945,-0.2036,-0.0815,-0.0426,0
4.254037,2.3846,0.1293,10.2232,-0.2092,-0.0938,-0.0386,0
4.259201,2.3080,0.1101,10.2711,-0.2049,-0.1106,-0.0344,0
4.262551,2.2936,0.1006,10.2759,-0.1993,-0.1146,-0.0354,0
4.265585,2.3176,0.1197,10.2424,-0.2078,-0.1218,-0.0338,0
4.268559,2.2889,0.1915,10.2855,-0.2014,-0.1242,-0.0189,0
4.272087,2.2649,0.1053,10.3286,-0.1996,-0.1359,-0.0165,0
4.276196,2.2266,0.1437,10.3094,-0.2017,-0.1383,-0.0117,0
4.279408,2.2793,0.1484,10.3046,-0.2004,-0.1495,-0.0016,0
4.282435,2.2218,0.1389,10.3046,-0.1966,-0.1487,-0.0040,0
4.285968,2.2410,0.0527,10.3190,-0.1990,-0.1559,0.0059,0
4.290255,2.2889,0.1149,10.3046,-0.2012,-0.1583,0.0147,0
4.294078,2.2745,0.1149,10.3094,-0.2014,-0.1577,0.0272,0
4.297088,2.2793,0.0670,10.2951,-0.2022,-0.1676,0.0328,0
4.300254,2.3320,0.0383,10.3094,-0.1996,-0.1673,0.0365,0
4.303201,2.3655,0.0718,10.2520,-0.2052,-0.1767,0.0432,0
4.306877,2.3224,0.0239,10.2663,-0.2086,-0.1769,0.0594,0
4.311622,2.3511,0.1149,10.2137,-0.2102,-0.1863,0.0653,0
4.314747,2.4517,0.1149,10.2424,-0.2166,-0.1871,0.0749,0
4.318015,2.4134,0.1437,10.2663,-0.2124,-0.1905,0.0786,0
4.323155,2.4325,0.2059,10.1945,-0.2174,-0.1905,0.0935,0
4.327568,2.4995,0.2155,10.1179,-0.2214,-0.1951,0.0999,0
4.330929,2.4421,0.2155,10.1035,-0.2268,-0.2014,0.1061,0
4.334675,2.4948,0.2921,10.0604,-0.2294,-0.2012,0.1140,0
4.338095,2.4948,0.3496,10.0365,-0.2294,-0.2052,0.1210,0
4.343212,2.4612,0.3543,10.0126,-0.2276,-0.2145,0.1356,0
4.346492,2.4948,0.4166,9.9407,-0.2292,-0.2129,0.1396,0
4.349611,2.5426,0.3974,9.9216,-0.2305,-0.2161,0.1372,0
4.353150,2.5522,0.5028,9.9503,-0.2345,-0.2254,0.1450,0
4.358687,2.5570,0.4357,9.8114,-0.2276,-0.2276,0.1529,0
4.362063,2.5379,0.4597,9.8450,-0.2270,-0.2278,0.1545,0
4.365152,2.5666,0.4310,9.8210,-0.2238,-0.2334,0.1583,0
4.368364,2.6145,0.4693,9.7588,-0.2241,-0.2310,0.1655,0
4.371410,2.5857,0.4453,9.7348,-0.2252,-0.2390,0.1647,0
4.375099,2.6432,0.3687,9.7013,-0.2270,-0.2478,0.1684,0
4.379557,2.6671,0.2969,9.6534,-0.2289,-0.2478,0.1671,0
4.382703,2.7054,0.3400,9.6295,-0.2308,-0.2459,0.1668,0
4.386107,2.7054,0.2634,9.6055,-0.2292,-0.2542,0.1647,0
4.390566,2.7773,0.2921,9.5241,-0.2326,-0.2590,0.1575,0
4.394333,2.7725,0.1772,9.5481,-0.2289,-0.2633,0.1588,0
4.397393,2.8491,0.1772,9.4906,-0.2329,-0.2670,0.1498,0
4.400909,2.8730,0.1101,9.5481,-0.2369,-0.2678,0.1503,0
4.403896,2.8922,0.1149,9.5193,-0.2409,-0.2739,0.1476,0
4.407503,2.9113,0.1293,9.5385,-0.2449,-0.2854,0.1412,0
4.412147,2.9592,0.0575,9.5433,-0.2478,-0.2947,0.1439,0
4.415483,2.9449,0.0239,9.6007,-0.2486,-0.3078,0.1362,0
4.418583,3.1029,0.0718,9.5577,-0.2513,-0.3070,0.1380,0
4.422930,2.9640,-0.0144,9.6103,-0.2569,-0.3262,0.1340,0
4.426697,2.9975,0.0096,9.5289,-0.2539,-0.3315,0.1383,0
4.429884,2.9497,-0.0239,9.6007,-0.2523,-0.3408,0.1332,0
4.433205,3.0023,-0.0239,9.6103,-0.2507,-0.3467,0.1282,0
4.436398,2.9401,-0.0192,9.6199,-0.2542,-0.3563,0.1263,0
4.439867,2.9449,-0.0431,9.6438,-0.2561,-0.3651,0.1322,0
4.444022,2.9257,-0.0192,9.6630,-0.2518,-0.3760,0.1263,0
4.447429,2.8443,-0.0144,9.6678,-0.2553,-0.3789,0.1311,0
4.450505,2.9066,0.0192,9.6486,-0.2491,-0.3922,0.1255,0
4.453846,2.8587,-0.0048,9.7252,-0.2369,-0.3994,0.1314,0
4.459030,2.9161,-0.1197,9.6247,-0.2377,-0.4018,0.1242,0
4.462221,2.8587,-0.0431,9.7157,-0.2364,-0.4104,0.1279,0
4.465657,2.8970,-0.1484,9.7683,-0.2318,-0.4130,0.1247,0
4.468900,2.9305,-0.1580,9.6822,-0.2321,-0.4151,0.1242,0
4.471953,2.8491,-0.2107,9.6822,-0.2252,-0.4223,0.1279,0
4.476918,2.8252,-0.2346,9.6199,-0.2260,-0.4293,0.1167,0
4.480197,2.8252,-0.3974,9.6151,-0.2281,-0.4293,0.1282,0
4.483363,2.7533,-0.4022,9.6199,-0.2217,-0.4309,0.1188,0
4.486702,2.8252,-0.4022,9.6295,-0.2209,-0.4335,0.1258,0
4.492000,2.8060,-0.3639,9.6726,-0.2166,-0.4338,0.1266,0
4.495372,2.8204,-0.3496,9.7300,-0.2257,-0.4407,0.1327,0
4.498525,2.8347,-0.3687,9.7636,-0.2142,-0.4442,0.1322,0
4.501703,2.8491,-0.3735,9.7588,-0.2156,-0.4423,0.1319,0
4.504671,2.8347,-0.3543,9.8737,-0.2076,-0.4439,0.1404,0
4.509355,2.9066,-0.3160,9.8976,-0.2068,-0.4447,0.1394,0
4.513021,2.9209,-0.2825,9.8689,-0.2041,-0.4549,0.1455,0
4.516228,2.9209,-0.3926,9.8593,-0.2030,-0.4522,0.1471,0
4.519576,2.8491,-0.3065,9.9216,-0.1919,-0.4477,0.1460,0
4.523939,2.8491,-0.2777,9.9359,-0.1855,-0.4493,0.1500,0
4.527552,2.7533,-0.2682,9.8881,-0.1809,-0.4562,0.1463,0
4.530606,2.7677,-0.2059,9.8593,-0.1663,-0.4487,0.1460,0
4.534874,2.7198,-0.2490,9.9072,-0.1628,-0.4466,0.1439,0
4.538202,2.7294,-0.2682,9.9359,-0.1607,-0.4413,0.1452,0
4.542666,2.7581,-0.1820,9.9216,-0.1514,-0.4399,0.1452,0
4.546373,2.8635,-0.1484,9.9503,-0.1391,-0.4333,0.1442,0
4.549509,2.8778,-0.1053,10.0365,-0.1271,-0.4458,0.1364,0
4.552965,3.1603,-0.1101,9.5768,-0.1061,-0.4748,0.1343,0
4.557472,4.3622,0.1389,8.0541,-0.0778,-0.4756,0.1319,0
4.561325,4.5250,0.4645,8.3797,-0.0789,-0.4517,0.1005,0
4.564378,2.9832,0.1197,9.1985,-0.0778,-0.4804,0.0911,0
4.567672,2.5714,-0.1915,9.8258,-0.0757,-0.5257,0.0978,0
4.570663,3.3806,-0.0479,10.0556,-0.0634,-0.5145,0.0858,0
4.574110,3.3662,-0.0239,10.0221,-0.0504,-0.5015,0.0730,0
4.578900,2.9688,-0.2969,9.9168,-0.0424,-0.5239,0.0778,0
4.582094,3.4716,-0.1197,9.7827,-0.0397,-0.5153,0.0735,0
4.585411,3.3184,-0.2298,9.8258,-0.0282,-0.5020,0.0679,0
4.589900,3.4572,-0.1628,10.0461,-0.0171,-0.5007,0.0767,0
4.593872,4.0462,0.0814,9.9168,-0.0109,-0.4900,0.0698,0
4.596937,3.7733,-0.0335,10.1131,-0.0032,-0.4903,0.0608,0
4.600218,3.3519,-0.2682,10.2663,0.0045,-0.4930,0.0626,0
4.603200,3.5530,-0.1101,10.3190,0.0123,-0.4839,0.0586,0
4.606765,3.7014,-0.0335,10.4962,0.0192,-0.4722,0.0514,0
4.611404,3.4668,-0.2394,10.9223,0.0280,-0.4722,0.0522,0
4.614616,3.6966,-0.1245,10.8409,0.0378,-0.4623,0.0506,0
4.617691,3.8020,-0.0575,10.6973,0.0493,-0.4522,0.0394,0
4.622047,3.5769,-0.0862,10.5297,0.0536,-0.4415,0.0381,0
4.625983,3.7254,-0.2538,10.6877,0.0605,-0.4391,0.0346,0
4.629263,3.7972,-0.1820,10.7883,0.0685,-0.4226,0.0328,0
4.632579,3.5769,-0.2825,10.7404,0.0709,-0.4183,0.0309,0
4.636086,3.3710,-0.4405,10.4244,0.0743,-0.4133,0.0288,0
4.639536,4.1707,-0.5507,8.8394,0.0730,-0.3997,0.0224,0
4.644569,2.8587,-0.6321,9.2320,0.0578,-0.4175,0.0133,0
4.647811,2.4995,-0.9002,10.9942,0.0474,-0.4311,0.0285,0
4.650860,3.0646,-0.8763,9.4810,0.0554,-0.4085,0.0389,0
4.654331,3.0406,-0.9816,9.3374,0.0352,-0.3994,0.0298,0
4.659564,2.3894,-1.0391,9.3996,0.0197,-0.4157,0.0520,0
4.662751,2.9257,-0.9385,8.9830,0.0032,-0.4133,0.0530,0
4.665838,3.0071,-0.9050,9.1171,-0.0160,-0.4040,0.0538,0
4.669229,2.4277,-1.0151,8.9687,-0.0155,-0.4186,0.0653,0
4.672257,2.7629,-0.9625,9.2081,-0.0306,-0.4226,0.0762,0
4.676613,3.1029,-0.6560,8.9447,-0.0424,-0.4399,0.0714,0
4.680286,2.8874,-0.7709,8.7101,-0.0469,-0.4525,0.0773,0
4.683454,2.9353,-0.6847,9.1459,-0.0528,-0.4644,0.0863,0
4.686797,3.1460,-0.6081,9.2225,-0.0520,-0.4735,0.0882,0
4.691442,2.8730,-0.7183,9.6582,-0.0434,-0.4812,0.0943,0
4.695101,2.8252,-0.6991,9.7683,-0.0376,-0.4994,0.1026,0
4.698135,3.0406,-0.6321,9.6869,-0.0312,-0.4999,0.1069,0
4.701436,2.9640,-0.7566,9.7683,-0.0296,-0.5089,0.1074,0
4.704424,3.0837,-0.8045,9.8306,-0.0237,-0.5228,0.1132,0
4.707864,3.2896,-0.6895,9.7444,-0.0149,-0.5367,0.1191,0
4.712632,3.4333,-0.8188,9.6917,-0.0056,-0.5508,0.1146,0
4.715921,3.4477,-0.7853,9.5864,-0.0037,-0.5700,0.1170,0
4.719351,3.6392,-0.8045,9.5481,0.0053,-0.5934,0.1167,0
4.725085,3.5961,-0.8092,9.5337,0.0109,-0.6171,0.1138,0
4.729039,3.7493,-0.7757,9.5864,0.0163,-0.6366,0.1188,0
4.732317,3.8690,-0.8571,9.4475,0.0147,-0.6571,0.1122,0
4.735487,3.8355,-0.7853,9.3039,0.0226,-0.6739,0.1090,0
4.738680,3.7493,-0.8667,9.3087,0.0173,-0.6928,0.1138,0
4.742022,3.8595,-0.8332,9.1889,0.0144,-0.7173,0.1090,0
4.746285,3.8259,-0.9050,9.2464,0.0141,-0.7336,0.1114,0
4.749600,3.7781,-0.9050,9.2225,0.0091,-0.7549,0.1103,0
4.752616,3.8403,-0.9433,9.1267,0.0048,-0.7674,0.1095,0
4.756061,3.9121,-0.9146,9.0022,-0.0051,-0.7959,0.1039,0
4.760928,3.9313,-0.8667,9.0309,-0.0101,-0.8095,0.1063,0
4.763969,3.9600,-0.8763,9.0740,-0.0139,-0.8276,0.1042,0
4.766970,3.9073,-0.8715,9.0644,-0.0187,-0.8380,0.1007,0
4.770229,3.8930,-0.8045,9.0070,-0.0179,-0.8556,0.0970,0
4.774577,3.8547,-0.8284,8.8729,-0.0285,-0.8676,0.0927,0
4.778167,3.8786,-0.7709,8.8777,-0.0274,-0.8801,0.0941,0
4.781252,3.8164,-0.7470,8.8538,-0.0381,-0.8860,0.0914,0
4.784726,3.8642,-0.7278,8.8107,-0.0365,-0.9025,0.0847,0
4.789838,3.8738,-0.6752,8.7915,-0.0426,-0.9134,0.0802,0
4.793576,3.8259,-0.7087,8.7149,-0.0493,-0.9222,0.0794,0
4.796580,3.8499,-0.6512,8.5042,-0.0474,-0.9233,0.0826,0
4.800200,3.8834,-0.5411,8.2361,-0.0456,-0.9182,0.0786,0
4.803443,3.9313,-0.5219,8.0445,-0.0608,-0.9100,0.0871,0
4.807215,4.3000,-0.5842,7.6279,-0.0581,-0.8980,0.0839,0
4.812067,4.2042,-0.5076,7.5322,-0.0666,-0.8239,0.0775,0
4.815211,3.9744,-0.1915,7.0246,-0.0706,-0.7584,0.0885,0
4.818372,4.2904,-0.2490,7.1922,-0.0826,-0.6936,0.0965,0
4.823444,4.5298,-0.2777,7.4412,-0.0778,-0.6017,0.0967,0
4.827214,4.0606,-0.2107,7.5082,-0.0839,-0.5529,0.0855,0
4.830428,4.0223,-0.3639,7.7189,-0.0831,-0.5209,0.0927,0
4.833677,4.3144,-0.3687,7.7333,-0.0842,-0.4866,0.0914,0
4.836660,4.2329,-0.3160,7.8003,-0.0845,-0.4461,0.0866,0
4.840237,3.7445,-0.2921,7.8290,-0.0869,-0.3832,0.0877,0
4.844641,4.1707,-0.3065,7.9057,-0.0943,-0.3477,0.0922,0
4.847951,4.1276,-0.2490,7.9871,-0.0935,-0.2984,0.0791,0
4.851027,3.7062,-0.3256,8.0445,-0.0949,-0.2369,0.0829,0
4.855533,4.0558,-0.3160,8.2025,-0.0983,-0.1244,0.0885,0
4.860315,4.0079,-0.2729,8.1786,-0.0975,-0.0666,0.0901,0
4.863438,3.8547,-0.3543,8.2600,-0.0975,0.0139,0.0949,0
4.866548,3.9073,-0.3783,8.5473,-0.0911,0.0685,0.1023,0
4.869630,4.1420,-0.3304,8.7293,-0.0866,0.1535,0.1071,0
4.872741,3.9073,-0.3496,8.9208,-0.0618,0.2766,0.1162,0
4.877931,3.9744,-0.4501,9.2273,-0.0413,0.3656,0.1359,0
4.881223,4.2282,-0.4166,9.3374,-0.0237,0.4311,0.1359,0
4.884316,4.1851,-0.4357,9.4906,-0.0043,0.5108,0.1434,0
4.887757,4.3239,-0.3591,9.4810,0.0416,0.6360,0.1564,0
4.892939,4.6160,-0.4310,9.5385,0.0765,0.7088,0.1583,0
4.896123,4.6495,-0.3591,9.5146,0.1047,0.7594,0.1580,0
4.899159,4.6783,-0.3400,9.4427,0.1370,0.8223,0.1601,0
4.902572,4.7118,-0.3687,9.4188,0.1721,0.8817,0.1551,0
4.905668,4.8459,-0.3879,9.3948,0.2006,0.9340,0.1506,0
4.909977,4.7884,-0.3591,9.3470,0.2446,0.9896,0.1439,0
4.913670,4.7453,-0.3160,9.2512,0.2739,1.0243,0.1343,0
4.916847,4.7645,-0.2634,9.2129,0.2952,1.0536,0.1311,0
4.919912,4.6783,-0.3304,9.1842,0.3341,1.0957,0.1122,0
4.924658,4.6639,-0.3304,9.2129,0.3608,1.1181,0.1058,0
4.927949,4.5729,-0.3208,8.9926,0.3746,1.1293,0.0922,0
4.930938,4.5586,-0.2825,9.0214,0.3893,1.1455,0.0791,0
4.934083,4.3862,-0.2825,9.0644,0.4002,1.1543,0.0711,0
4.937440,4.3574,-0.3496,9.0453,0.4199,1.1788,0.0562,0
4.942606,4.1994,-0.3496,9.0788,0.4357,1.1983,0.0432,0
4.946361,4.1515,-0.4357,9.1554,0.4405,1.1969,0.0333,0
4.949545,4.1132,-0.4070,9.2416,0.4557,1.2127,0.0296,0
4.952971,3.9935,-0.4693,9.3039,0.4668,1.2300,0.0115,0
4.957474,3.9313,-0.4693,9.3757,0.4772,1.2345,0.0080,0
4.961283,3.8451,-0.4645,9.4188,0.4820,1.2436,0.0027,0
4.964387,3.8547,-0.4693,9.4092,0.4935,1.2628,0.0000,0
4.967864,3.7733,-0.4405,9.5146,0.4999,1.2657,-0.0011,0
4.970851,3.7350,-0.4262,9.5146,0.5095,1.2756,-0.0059,0
4.974942,3.6583,-0.3831,9.6199,0.5188,1.2945,-0.0088,0
4.978273,3.5913,-0.3879,9.6869,0.5257,1.3033,-0.0152,0
4.981386,3.5530,-0.3735,9.7061,0.5332,1.3118,-0.0197,0
4.984580,3.4764,-0.3591,9.7923,0.5436,1.3265,-0.0218,0
4.989989,3.3615,-0.3879,9.8306,0.5588,1.3550,-0.0269,0
4.993896,3.3279,-0.3256,9.9311,0.5636,1.3571,-0.0336,0
4.996939,3.2513,-0.3400,9.9551,0.5753,1.3776,-0.0373,0
5.000228,3.1412,-0.3543,9.9072,0.5836,1.3851,-0.0384,0
5.003300,3.1268,-0.3208,10.0269,0.5891,1.3936,-0.0432,0
5.006326,3.0454,-0.3160,9.9503,0.5958,1.4064,-0.0458,0
5.010647,2.9161,-0.2634,10.0269,0.6094,1.4168,-0.0480,0
5.014081,2.9257,-0.2873,9.9742,0.6187,1.4194,-0.0570,0
5.017186,2.7581,-0.2538,9.9599,0.6281,1.4264,-0.0594,0
5.020445,2.8108,-0.2011,9.9359,0.6403,1.4274,-0.0621,0
5.024954,2.7246,-0.1532,9.8881,0.6488,1.4336,-0.0706,0
5.028437,2.6624,-0.1197,9.7731,0.6520,1.4288,-0.0706,0
5.031487,2.5953,-0.1053,9.7348,0.6582,1.4301,-0.0738,0
5.034856,2.6001,-0.1149,9.7300,0.6624,1.4216,-0.0751,0
5.037971,2.6049,-0.0670,9.5720,0.6686,1.4160,-0.0738,0
5.042522,2.5091,-0.0479,9.5433,0.6720,1.3997,-0.0775,0
5.046102,2.4565,0.0048,9.5337,0.6773,1.3856,-0.0751,0
5.049421,2.5187,0.0000,9.5002,0.6768,1.3744,-0.0818,0
5.052989,2.4852,0.0239,9.3278,0.6744,1.3448,-0.0818,0
5.057407,2.4325,0.0527,9.2368,0.6768,1.3222,-0.0799,0
5.061188,2.5474,0.0958,9.1171,0.6630,1.2881,-0.0893,0
5.064230,2.5426,0.0670,8.9591,0.6579,1.2577,-0.0863,0
5.067635,2.5235,0.2490,8.4467,0.6318,1.1594,-0.0925,0
5.076436,2.5091,0.2969,8.2744,0.6035,1.1024,-0.1031,0
5.080103,2.5570,0.2011,8.1163,0.5838,1.0651,-0.1058,0
5.083322,2.6432,0.3735,7.9727,0.5644,1.0368,-0.1138,0
5.086628,2.6863,0.4214,7.8243,0.5292,0.9936,-0.1290,0
5.091340,2.7007,0.4836,7.7285,0.4927,0.9563,-0.1428,0
5.094863,2.7773,0.5124,7.6040,0.4722,0.9252,-0.1580,0
5.097951,2.8156,0.5602,7.5369,0.4423,0.8961,-0.1695,0
5.101469,2.8395,0.6225,7.5178,0.4101,0.8673,-0.1804,0
5.104456,2.8778,0.6560,7.5753,0.3778,0.8343,-0.1961,0
5.107703,2.9257,0.6943,7.6471,0.3421,0.7903,-0.2185,0
5.111817,2.8778,0.6656,7.7428,0.3203,0.7623,-0.2318,0
5.115066,2.8683,0.6177,7.7381,0.2891,0.7333,-0.2406,0
5.118090,2.8204,0.6895,7.8195,0.2542,0.7083,-0.2566,0
5.121482,2.7533,0.6225,7.9104,0.2148,0.6654,-0.2814,0
5.126570,2.5570,0.6608,8.0589,0.1929,0.6496,-0.2928,0
5.129698,2.6001,0.6321,8.1403,0.1625,0.6233,-0.3014,0
5.132865,2.5043,0.6225,8.1307,0.1415,0.5950,-0.3136,0
5.136230,2.2410,0.2634,8.2552,0.1346,0.5561,-0.3155,0
5.139408,2.0016,0.0670,8.9304,0.1250,0.5049,-0.3155,0
5.143840,1.7190,0.2298,8.8825,0.1148,0.4647,-0.3192,0
5.147617,1.4317,0.0718,8.6814,0.1013,0.4359,-0.3168,0
5.150841,1.4892,-0.0192,8.8394,0.0951,0.4032,-0.3192,0
5.154171,1.3886,0.0000,8.7915,0.0741,0.3656,-0.3190,0
5.158657,0.8571,0.0479,8.8490,0.0608,0.3365,-0.3134,0
5.161953,0.7470,-0.1149,9.0692,0.0408,0.3264,-0.3088,0
5.164968,0.8045,-0.1772,8.9974,0.0320,0.3163,-0.3030,0
5.167919,0.7135,-0.1341,8.9926,0.0197,0.3030,-0.2955,0
5.171694,0.5602,-0.1867,9.0405,-0.0003,0.2931,-0.2819,0
5.176002,0.8763,-0.1389,9.0692,-0.0173,0.2920,-0.2782,0
5.179188,0.7757,-0.1389,9.1937,-0.0277,0.2880,-0.2707,0
5.182366,0.5650,-0.2203,9.4475,-0.0384,0.3008,-0.2601,0
5.185932,0.6416,-0.1149,9.5816,-0.0472,0.3309,-0.2449,0
5.190319,0.5555,0.0622,9.9216,-0.0613,0.3856,-0.2289,0
5.194188,0.6273,0.2011,10.2041,-0.0512,0.4266,-0.2212,0
5.197222,0.7997,0.2346,10.3813,-0.0504,0.4719,-0.2033,0
5.200485,0.9433,0.3687,10.4291,-0.0357,0.5002,-0.1948,0
5.203447,1.1396,0.4549,10.6159,-0.0296,0.5244,-0.1929,0
5.206748,1.2115,0.6033,10.5872,-0.0075,0.5654,-0.1828,0
5.211488,1.3982,0.6847,10.7404,0.0072,0.5820,-0.1793,0
5.214734,1.3455,0.6752,11.0181,0.0242,0.5990,-0.1796,0
5.217956,1.2498,0.7566,11.1043,0.0488,0.6206,-0.1700,0
5.222082,1.2115,0.7566,11.4443,0.0719,0.6635,-0.1673,0
5.226088,1.1253,0.6273,11.6981,0.0954,0.6917,-0.1572,0
5.229364,1.0630,0.5986,11.8226,0.1119,0.7306,-0.1506,0
5.232713,0.9625,0.6464,12.0380,0.1340,0.7810,-0.1420,0
5.235852,0.8428,0.5794,12.4115,0.1545,0.8274,-0.1378,0
5.238872,0.5938,0.5219,12.9526,0.1743,0.8860,-0.1308,0
5.242826,0.3160,0.3591,13.3644,0.2145,0.9763,-0.1167,0
5.246536,0.4693,0.3735,13.1825,0.2403,1.0488,-0.0973,0
5.250170,0.6991,0.5938,13.0388,0.2638,1.1271,-0.0858,0
5.253769,0.2921,0.3879,13.1490,0.3102,1.2516,-0.0541,0
5.258784,0.1676,0.3304,13.2974,0.3405,1.3603,-0.0338,0
5.262760,0.5411,0.6177,13.0580,0.3608,1.4266,-0.0213,0
5.266550,0.5411,0.8092,12.7850,0.3821,1.5388,-0.0061,0
5.269863,0.5315,0.8332,12.6127,0.3933,1.6033,0.0120,0
5.272943,0.5794,0.9050,12.1865,0.4125,1.7261,0.0357,0
5.277907,0.5986,1.1157,12.1769,0.4210,1.7944,0.0437,0
5.281180,0.2682,1.1157,12.3972,0.4269,1.8445,0.0560,0
5.284226,0.2107,1.0726,12.3158,0.4431,1.8937,0.0762,0
5.287686,1.5419,1.3312,11.2001,0.4647,1.9436,0.0850,0
5.292963,0.9577,1.5897,10.8745,0.4647,1.9558,0.0853,0
5.296099,0.4932,1.5323,11.2144,0.4668,1.9617,0.0967,0
5.299146,0.5794,1.3216,11.2911,0.4719,1.9689,0.1039,0
5.302724,0.6895,1.2067,11.3820,0.4844,1.9729,0.1055,0
5.305861,0.4693,1.3408,11.2863,0.4900,1.9620,0.1023,0
5.310485,0.0766,1.3934,10.9607,0.4860,1.9343,0.1103,0
5.313926,-0.1006,0.9625,11.3629,0.4970,1.9148,0.1167,0
5.317026,0.0814,0.9864,11.3342,0.5020,1.8940,0.1138,0
5.320466,-0.0239,1.2785,11.3677,0.5124,1.8658,0.1130,0
5.325798,-0.5890,1.2498,11.1474,0.5167,1.8527,0.1148,0
5.328979,-0.0144,1.0870,11.1618,0.5148,1.8421,0.1039,0
5.332022,-0.1963,1.2019,10.9463,0.5113,1.8327,0.0938,0
5.335504,-0.6369,1.4269,10.7452,0.4967,1.8202,0.0861,0
5.338555,-0.6752,1.5419,10.4531,0.4860,1.8085,0.0826,0
5.342727,-0.6177,1.1540,10.5393,0.4674,1.7936,0.0671,0
5.346449,-0.7326,1.2115,10.6398,0.4549,1.7746,0.0533,0
5.349590,-0.9242,1.5275,10.4674,0.4354,1.7645,0.0445,0
5.353177,-1.2258,1.5131,10.3573,0.4120,1.7525,0.0400,0
5.357868,-0.8284,0.9960,10.7021,0.3944,1.7176,0.0322,0
5.361496,-0.9481,1.2019,10.6638,0.3858,1.6795,0.0282,0
5.364589,-1.3503,1.5083,10.3382,0.3595,1.6473,0.0277,0
5.368154,-1.1684,1.4078,10.1897,0.3400,1.6150,0.0341,0
5.371172,-1.1013,1.1061,10.0844,0.3275,1.5799,0.0285,0
5.375510,-1.2306,1.3072,9.8593,0.3072,1.5420,0.0264,0
5.378800,-1.2689,1.5658,9.7109,0.2862,1.5036,0.0280,0
5.381963,-1.2881,1.5945,9.6965,0.2651,1.4687,0.0293,0
5.385130,-1.3264,1.3408,9.5529,0.2345,1.4067,0.0320,0
5.390355,-1.4557,1.4844,9.1219,0.2062,1.3664,0.0317,0
5.394194,-1.5754,1.5179,9.0022,0.1772,1.3238,0.0408,0
5.397236,-1.4413,1.4174,9.0118,0.1495,1.2804,0.0437,0
5.400833,-1.5371,1.2929,9.0692,0.1292,1.2561,0.0464,0
5.403862,-1.6472,1.3408,8.8873,0.0978,1.2092,0.0528,0
5.408396,-1.5658,1.3599,8.7532,0.0610,1.1514,0.0594,0
5.411837,-1.7286,1.2737,8.7867,0.0330,1.1072,0.0645,0
5.414942,-1.8196,1.1492,8.9112,0.0011,1.0595,0.0690,0
5.418151,-1.8387,1.1827,8.9639,-0.0250,0.9995,0.0821,0
5.423182,-2.0255,1.1109,9.0549,-0.0645,0.9419,0.0970,0
5.427055,-2.2170,0.9529,9.1028,-0.0781,0.9118,0.1037,0
5.430113,-2.2697,0.9337,9.1411,-0.1138,0.8556,0.1202,0
5.433642,-2.3080,0.8092,9.2656,-0.1322,0.8300,0.1327,0
5.436634,-2.4565,0.7326,9.4667,-0.1500,0.7874,0.1474,0
5.440096,-2.5905,0.6273,9.6822,-0.1759,0.7338,0.1673,0
5.444454,-2.6336,0.5171,9.7779,-0.1873,0.6957,0.1849,0
5.447720,-2.7916,0.4070,9.8737,-0.2049,0.6723,0.2009,0
5.450783,-2.8730,0.4070,9.9311,-0.2230,0.6177,0.2273,0
5.455440,-2.9161,0.1341,10.0700,-0.2454,0.5662,0.2707,0
5.461181,-2.9257,0.1006,10.1179,-0.2539,0.5391,0.2923,0
5.464467,-2.9497,0.0239,10.1897,-0.2649,0.5057,0.3232,0
5.467993,-2.9736,-0.0766,10.1083,-0.2793,0.4852,0.3477,0
5.471166,-3.0215,-0.1149,10.2089,-0.2894,0.4565,0.3746,0
5.475769,-2.9736,-0.2203,10.1897,-0.3040,0.4186,0.4093,0
5.480005,-3.1125,-0.2394,10.1658,-0.3118,0.4002,0.4330,0
5.483095,-3.0311,-0.3783,10.1658,-0.3235,0.3936,0.4570,0
5.486277,-2.9497,-0.3496,10.1610,-0.3373,0.3651,0.4855,0
5.490726,-2.9784,-0.3831,10.0700,-0.3557,0.3469,0.5244,0
5.494583,-2.9209,-0.4118,9.9647,-0.3661,0.3352,0.5308,0
5.497638,-2.8299,-0.3400,9.9503,-0.3770,0.3155,0.5561,0
5.501169,-2.7821,-0.4310,9.9264,-0.3997,0.3056,0.5700,0
5.504136,-2.6576,-0.4070,9.9072,-0.4117,0.2955,0.5891,0
5.507433,-2.6671,-0.4022,9.8641,-0.4330,0.2846,0.6075,0
5.511463,-2.6049,-0.4741,9.8066,-0.4586,0.2694,0.6233,0
5.514745,-2.6288,-0.3926,9.8306,-0.4772,0.2579,0.6336,0
5.517951,-2.6240,-0.4597,9.8066,-0.4946,0.2459,0.6507,0
5.522263,-2.6001,-0.4262,9.8785,-0.5281,0.2270,0.6646,0
5.526260,-2.5379,-0.4262,9.8785,-0.5409,0.2185,0.6813,0
5.529416,-2.5618,-0.4788,9.8450,-0.5625,0.2121,0.6893,0
5.532498,-2.6288,-0.4501,9.8737,-0.5801,0.1956,0.7011,0
5.535839,-2.6145,-0.4453,9.8833,-0.6046,0.1852,0.7147,0
5.538873,-2.6863,-0.4980,10.0030,-0.6246,0.1713,0.7266,0
5.542913,-2.6671,-0.4645,10.0365,-0.6568,0.1631,0.7416,0
5.546447,-2.6624,-0.4214,10.0030,-0.6747,0.1524,0.7493,0
5.549606,-2.6480,-0.4214,10.0748,-0.6912,0.1380,0.7615,0
5.553155,-2.6959,-0.5459,10.2280,-0.7266,0.1234,0.7818,0
5.558614,-2.7533,-0.4932,10.3908,-0.7568,0.1085,0.7997,0
5.562927,-2.8204,-0.5650,10.4674,-0.7791,0.0991,0.8135,0
5.566047,-2.8539,-0.6464,10.5728,-0.7981,0.0935,0.8284,0
5.569451,-2.8587,-0.6225,10.6638,-0.8114,0.0850,0.8489,0
5.572523,-2.8491,-0.6416,10.7308,-0.8279,0.0725,0.8679,0
5.577639,-2.8778,-0.7709,10.9463,-0.8529,0.0682,0.8916,0
5.580967,-2.9928,-0.7757,11.0229,-0.8665,0.0610,0.9100,0
5.583992,-2.8347,-0.7661,11.0995,-0.8825,0.0536,0.9273,0
5.588568,-2.8778,-0.7709,11.0468,-0.9044,0.0448,0.9617,0
5.592858,-2.8778,-0.7805,11.0899,-0.9174,0.0354,0.9832,0
5.596007,-2.8539,-0.8475,11.0133,-0.9188,0.0322,1.0008,0
5.599033,-2.7677,-0.8236,10.9702,-0.9371,0.0226,1.0166,0
5.602448,-2.7629,-0.8045,10.9846,-0.9481,0.0304,1.0397,0
5.605974,-2.7821,-0.8571,11.0181,-0.9606,0.0226,1.0648,0
5.610132,-2.6671,-0.8045,10.9942,-0.9755,0.0120,1.0850,0
5.613272,-2.7294,-0.7901,10.9607,-0.9838,0.0149,1.1021,0
5.616379,-2.6384,-0.8380,10.8984,-0.9918,0.0040,1.1269,0
5.620276,-2.5474,-0.8523,10.9654,-1.0166,-0.0043,1.1519,0
5.625741,-2.4948,-0.7661,10.9319,-1.0224,-0.0109,1.1743,0
5.628981,-2.4612,-0.8523,10.9176,-1.0285,-0.0131,1.1828,0
5.632185,-2.4517,-0.8428,10.9032,-1.0312,-0.0250,1.2057,0
5.635404,-2.4277,-0.9625,10.9654,-1.0453,-0.0301,1.2132,0
5.638427,-2.3080,-0.8811,10.9415,-1.0544,-0.0437,1.2414,0
5.643531,-2.2601,-0.8571,10.7835,-1.0653,-0.0560,1.2532,0
5.646772,-2.2410,-0.9098,10.7787,-1.0677,-0.0693,1.2652,0
5.649948,-2.1835,-0.9433,10.7835,-1.0749,-0.0770,1.2830,0
5.653349,-2.1261,-0.8954,10.7452,-1.0872,-0.0983,1.3033,0
5.659075,-2.0973,-0.9194,10.7356,-1.0984,-0.1100,1.3166,0
5.662581,-2.0303,-0.9625,10.6925,-1.1045,-0.1375,1.3387,0
5.667425,-1.9728,-1.0199,10.6781,-1.1090,-0.1508,1.3520,0
5.671035,-1.9920,-1.1301,10.7691,-1.1183,-0.1692,1.3702,0
5.674818,-1.9632,-1.0582,10.8649,-1.1245,-0.1796,1.3955,0
5.679621,-1.9297,-1.1588,10.9176,-1.1215,-0.1908,1.4091,0
5.682789,-2.0016,-1.1827,11.0373,-1.1255,-0.1985,1.4208,0
5.686333,-1.9728,-1.1684,11.0708,-1.1226,-0.2124,1.4429,0
5.691039,-2.0638,-1.2019,11.2527,-1.1239,-0.2220,1.4589,0
5.694695,-2.0063,-1.1396,11.3294,-1.1202,-0.2308,1.4738,0
5.697819,-1.9920,-1.1444,11.4108,-1.1218,-0.2393,1.4901,0
5.701017,-1.9154,-1.1636,11.4060,-1.1149,-0.2457,1.5015,0
5.704091,-1.9058,-1.0822,11.3294,-1.1133,-0.2545,1.5114,0
5.707512,-1.8627,-1.1253,11.2527,-1.1106,-0.2747,1.5298,0
5.711973,-1.8004,-1.0391,11.2719,-1.1098,-0.2843,1.5394,0
5.715067,-1.7382,-1.0295,11.2144,-1.1069,-0.2966,1.5447,0
5.718282,-1.6568,-1.0582,11.1378,-1.1024,-0.3200,1.5604,0
5.723833,-1.5419,-1.0008,11.0421,-1.0976,-0.3379,1.5735,0
5.727544,-1.5514,-0.9433,10.9511,-1.0986,-0.3635,1.5780,0
5.730576,-1.5562,-0.9577,10.9223,-1.0973,-0.3866,1.5855,0
5.734170,-1.4796,-0.9385,10.9750,-1.0917,-0.4040,1.5855,0
5.737224,-1.4748,-0.8954,10.8984,-1.0869,-0.4138,1.5924,0
5.740702,-1.5275,-0.9098,10.9798,-1.0853,-0.4453,1.6004,0
5.745507,-1.6089,-0.8380,10.9894,-1.0808,-0.4636,1.6062,0
5.748661,-1.6807,-0.8859,10.9367,-1.0736,-0.4788,1.6148,0
5.752245,-1.6664,-0.8236,11.0038,-1.0648,-0.4951,1.6185,0
5.756833,-1.7142,-0.9194,11.0229,-1.0597,-0.4967,1.6289,0
5.760922,-1.8196,-0.9481,11.0612,-1.0525,-0.5057,1.6430,0
5.764606,-1.9106,-0.9912,11.2240,-1.0368,-0.5047,1.6521,0
5.768519,-2.0255,-0.9768,11.3054,-1.0309,-0.5020,1.6689,0
5.771581,-2.0494,-1.0439,11.4347,-1.0110,-0.4964,1.6784,0
5.775484,-2.1213,-1.1157,11.5305,-0.9958,-0.4887,1.6936,0
5.778892,-2.2362,-1.1205,11.6023,-0.9745,-0.4812,1.7112,0
5.782115,-2.2314,-1.0726,11.6550,-0.9630,-0.4754,1.7275,0
5.785431,-2.2027,-1.1349,11.6215,-0.9385,-0.4623,1.7536,0
5.789869,-2.2122,-1.1636,11.6693,-0.9145,-0.4490,1.7722,0
5.793532,-2.1644,-1.1492,11.6550,-0.8932,-0.4437,1.7856,0
5.796534,-2.1404,-1.1205,11.6598,-0.8759,-0.4309,1.8032,0
5.799874,-2.1596,-1.0965,11.7699,-0.8580,-0.4269,1.8114,0
5.802855,-2.0734,-1.0630,11.7124,-0.8410,-0.4175,1.8242,0
5.806084,-2.0494,-1.0726,11.6646,-0.8154,-0.4066,1.8389,0
5.810961,-1.9106,-1.0199,11.6262,-0.7989,-0.3997,1.8492,0
5.814162,-1.9872,-1.0630,11.6119,-0.7746,-0.3813,1.8586,0
5.817275,-1.9154,-0.9912,11.5496,-0.7576,-0.3824,1.8634,0
5.820902,-1.8387,-1.0104,11.5448,-0.7317,-0.3736,1.8754,0
5.826140,-1.7813,-0.9481,11.4156,-0.7171,-0.3619,1.8828,0
5.829334,-1.7382,-0.9768,11.3725,-0.6960,-0.3677,1.8892,0
5.832480,-1.7334,-1.0008,11.3581,-0.6845,-0.3632,1.8906,0
5.835788,-1.6281,-0.9864,11.2911,-0.6622,-0.3563,1.8967,0
5.838803,-1.6712,-0.9960,11.2480,-0.6435,-0.3541,1.9007,0
5.843442,-1.7047,-1.0343,11.2575,-0.6033,-0.3517,1.9124,0
5.847647,-1.6328,-1.0582,11.2288,-0.5926,-0.3549,1.9207,0
5.850698,-1.7238,-1.0487,11.2240,-0.5692,-0.3645,1.9311,0
5.853964,-1.7047,-1.1157,11.2097,-0.5383,-0.3688,1.9385,0
5.858433,-1.6807,-1.1301,11.1522,-0.5084,-0.3733,1.9502,0
5.861668,-1.6664,-1.0774,11.0947,-0.4866,-0.3762,1.9577,0
5.864932,-1.6807,-1.1013,11.0468,-0.4628,-0.3802,1.9654,0
5.868472,-1.6089,-1.2115,10.9607,-0.4407,-0.3893,1.9782,0
5.872831,-1.5227,-1.1444,10.8457,-0.4029,-0.3957,1.9913,0
5.877397,-1.5706,-1.1636,10.7931,-0.3773,-0.4069,1.9974,0
5.880841,-1.5562,-1.1492,10.8074,-0.3533,-0.4183,2.0113,0
5.884025,-1.5562,-1.1253,10.7308,-0.3296,-0.4242,2.0174,0
5.888738,-1.4796,-1.1588,10.6973,-0.2896,-0.4378,2.0270,0
5.892955,-1.4796,-1.2115,10.6590,-0.2689,-0.4530,2.0387,0
5.896157,-1.4605,-1.1444,10.5441,-0.2265,-0.4807,2.0499,0
5.903960,-1.3312,-1.2019,10.3573,-0.1977,-0.4908,2.0555,0
5.907598,-1.3599,-1.2258,10.2137,-0.1668,-0.5129,2.0624,0
5.911899,-1.3408,-1.2210,10.1706,-0.1476,-0.5217,2.0643,0
5.915474,-1.2689,-1.1684,10.0892,-0.1314,-0.5332,2.0757,0
5.918602,-1.3455,-1.2689,10.0365,-0.0970,-0.5630,2.0797,0
5.924068,-1.2498,-1.2833,9.9120,-0.0597,-0.5761,2.0877,0
5.927764,-1.2833,-1.3024,9.8306,-0.0346,-0.5822,2.0923,0
5.930791,-1.2785,-1.2977,9.8545,-0.0168,-0.5849,2.1040,0
5.933941,-1.3168,-1.3264,9.9024,0.0045,-0.5931,2.1029,0
5.937045,-1.2641,-1.3072,9.8402,0.0277,-0.5998,2.1077,0
5.940269,-1.3551,-1.4078,9.8210,0.0616,-0.6051,2.1096,0
5.944108,-1.3264,-1.3695,9.7683,0.0871,-0.6134,2.1173,0
5.947362,-1.3216,-1.3743,9.7109,0.1063,-0.6166,2.1216,0
5.950397,-1.3168,-1.3599,9.6917,0.1343,-0.6230,2.1234,0
5.953943,-1.3408,-1.4413,9.5864,0.1775,-0.6310,2.1296,0
5.959448,-1.2737,-1.4700,9.5002,0.1937,-0.6265,2.1266,0
5.962769,-1.3408,-1.4078,9.3996,0.2214,-0.6334,2.1306,0
5.966093,-1.3503,-1.5036,9.4475,0.2361,-0.6419,2.1330,0
5.969454,-1.3024,-1.4844,9.2943,0.2675,-0.6416,2.1320,0
5.972533,-1.3312,-1.4892,9.3518,0.2840,-0.6406,2.1338,0
5.977086,-1.4413,-1.4509,9.3230,0.3094,-0.6390,2.1320,0
5.980253,-1.3551,-1.5036,9.2368,0.3259,-0.6424,2.1362,0
5.983380,-1.4174,-1.4892,9.2273,0.3445,-0.6382,2.1328,0
5.987182,-1.4126,-1.5227,9.1171,0.3664,-0.6336,2.1301,0
5.992690,-1.4461,-1.5371,9.1554,0.3861,-0.6294,2.1312,0
5.995842,-1.5371,-1.5227,9.0932,0.3930,-0.6312,2.1322,0
5.998848,-1.5419,-1.5897,9.1506,0.4112,-0.6286,2.1298,0
6.002098,-1.5945,-1.5658,9.2273,0.4178,-0.6198,2.1285,0
6.005117,-1.6137,-1.5658,9.2177,0.4343,-0.6121,2.1317,0
6.009486,-1.6951,-1.6281,9.2751,0.4567,-0.6102,2.1256,0
6.013085,-1.7669,-1.6328,9.3230,0.4668,-0.6017,2.1261,0
6.016246,-1.7238,-1.6807,9.2799,0.4834,-0.5918,2.1218,0
6.019806,-1.6999,-1.6616,9.3182,0.5002,-0.5777,2.1216,0
6.024389,-1.7142,-1.6712,9.2703,0.5204,-0.5785,2.1170,0
6.027861,-1.6233,-1.6185,9.2129,0.5303,-0.5628,2.1162,0
6.030883,-1.6328,-1.6281,9.1842,0.5369,-0.5598,2.1067,0
6.034020,-1.5514,-1.5897,9.1411,0.5497,-0.5462,2.1016,0
6.037217,-1.4892,-1.5610,9.0644,0.5553,-0.5353,2.0917,0
6.040986,-1.4461,-1.4844,8.9687,0.5625,-0.5273,2.0672,0
6.045411,-1.3838,-1.4892,8.8490,0.5649,-0.5188,2.0592,0
6.048551,-1.3455,-1.4796,8.7915,0.5676,-0.5148,2.0462,0
6.051753,-1.3934,-1.4796,8.8202,0.5604,-0.5079,2.0174,0
6.057354,-1.3886,-1.4078,8.9591,0.5505,-0.5068,1.9915,0
6.061053,-1.4174,-1.4605,9.0597,0.5500,-0.5007,1.9780,0
6.064150,-1.3695,-1.4557,9.0405,0.5505,-0.4967,1.9569,0
6.067405,-1.3791,-1.3886,8.9878,0.5351,-0.4935,1.9366,0
6.071148,-1.3647,-1.4605,8.9830,0.5268,-0.4876,1.9185,0
6.075485,-1.3503,-1.4269,8.9495,0.5180,-0.4874,1.8884,0
6.078815,-1.2546,-1.3934,8.8873,0.5073,-0.4876,1.8679,0
6.081982,-1.4030,-1.4317,8.8969,0.4962,-0.4868,1.8461,0
6.085169,-1.3312,-1.3695,8.8490,0.4804,-0.4839,1.8162,0
6.090709,-1.3551,-1.4222,8.8681,0.4682,-0.4831,1.7872,0
6.094346,-1.4700,-1.4700,8.9830,0.4586,-0.4818,1.7682,0
6.097391,-1.4796,-1.4413,9.0166,0.4487,-0.4775,1.7509,0
6.100581,-1.5036,-1.4605,9.0692,0.4434,-0.4711,1.7325,0
6.103671,-1.5275,-1.4844,9.1267,0.4290,-0.4706,1.7184,0
6.106779,-1.5850,-1.4653,9.2177,0.4149,-0.4596,1.6920,0
6.112061,-1.6472,-1.4796,9.2320,0.4018,-0.4583,1.6699,0
6.115417,-1.5897,-1.4700,9.2751,0.3920,-0.4487,1.6539,0
6.118418,-1.6137,-1.4605,9.2416,0.3776,-0.4415,1.6347,0
6.121847,-1.6424,-1.4892,9.1650,0.3616,-0.4298,1.6126,0
6.126692,-1.5945,-1.4653,9.1650,0.3480,-0.4117,1.5900,0
6.129783,-1.5850,-1.5083,9.1698,0.3379,-0.4032,1.5687,0
6.132835,-1.6041,-1.4509,9.1554,0.3200,-0.3952,1.5559,0
6.135919,-1.5131,-1.4605,9.1602,0.3011,-0.3768,1.5330,0
6.140857,-1.4892,-1.4365,9.0549,0.2798,-0.3605,1.5010,0
6.144505,-1.4605,-1.4222,9.0453,0.2662,-0.3493,1.4810,0
6.147594,-1.4269,-1.3695,9.0740,0.2435,-0.3464,1.4613,0
6.150684,-1.3695,-1.3599,8.9687,0.2214,-0.3325,1.4349,0
6.154847,-1.3360,-1.3168,8.9735,0.1929,-0.3288,1.3979,0
6.159103,-1.2594,-1.2354,8.9543,0.1737,-0.3248,1.3765,0
6.162586,-1.3120,-1.2833,8.9256,0.1593,-0.3259,1.3555,0
6.165804,-1.2306,-1.2402,8.9495,0.1242,-0.3315,1.3246,0
6.169449,-1.3024,-1.2210,8.9208,0.1066,-0.3352,1.3038,0
6.173209,-1.3120,-1.1875,8.8681,0.0837,-0.3413,1.2676,0
6.177463,-1.3072,-1.1396,8.8585,0.0568,-0.3480,1.2494,0
6.180759,-1.2833,-1.1588,8.9016,0.0456,-0.3496,1.2295,0
6.183835,-1.3312,-1.2067,8.8825,0.0266,-0.3616,1.2108,0
6.187957,-1.2833,-1.2594,8.8969,0.0003,-0.3680,1.1847,0
6.192279,-1.4557,-1.2402,8.9352,-0.0226,-0.3688,1.1687,0
6.195469,-1.5036,-1.2402,8.9591,-0.0293,-0.3773,1.1522,0
6.198469,-1.5467,-1.2785,8.9256,-0.0469,-0.3794,1.1421,0
6.201895,-1.5610,-1.2881,8.9687,-0.0570,-0.3837,1.1298,0
6.204920,-1.6328,-1.2641,8.9016,-0.0661,-0.3890,1.1223,0
6.208229,-1.6999,-1.3072,8.9208,-0.0887,-0.3848,1.1146,0
6.212616,-1.7047,-1.3072,8.9208,-0.1021,-0.3784,1.1122,0
6.215855,-1.7526,-1.2929,8.8490,-0.1114,-0.3752,1.1042,0
6.218869,-1.7621,-1.2689,8.7963,-0.1223,-0.3691,1.1010,0
6.223123,-1.9010,-1.2689,8.8969,-0.1394,-0.3573,1.0997,0
6.226949,-1.8675,-1.2977,8.9208,-0.1519,-0.3405,1.0984,0
6.230108,-1.9345,-1.3024,8.8825,-0.1668,-0.3357,1.0984,0
6.233178,-1.9537,-1.3216,8.9304,-0.1740,-0.3174,1.0965,0
6.236500,-2.0159,-1.3503,8.9016,-0.1929,-0.2958,1.1024,0
6.239640,-1.9968,-1.3934,8.8729,-0.2094,-0.2734,1.1024,0
6.244222,-2.0255,-1.3503,8.8777,-0.2257,-0.2531,1.1080,0
6.247431,-2.0207,-1.3455,8.7867,-0.2356,-0.2329,1.1143,0
6.250473,-2.0159,-1.3743,8.7628,-0.2502,-0.2140,1.1149,0
6.253990,-2.0111,-1.3216,8.7963,-0.2707,-0.1841,1.1186,0
6.258299,-2.0255,-1.3024,8.7005,-0.2867,-0.1681,1.1234,0
6.261797,-1.9920,-1.3168,8.7388,-0.3043,-0.1474,1.1285,0
6.265047,-1.9297,-1.3312,8.6814,-0.3182,-0.1311,1.1277,0
6.268634,-1.9106,-1.3216,8.6431,-0.3331,-0.1175,1.1314,0
6.271661,-1.8579,-1.3360,8.6718,-0.3485,-0.1021,1.1311,0
6.275958,-1.8148,-1.2833,8.6287,-0.3717,-0.0794,1.1357,0
6.279456,-1.7095,-1.3168,8.4898,-0.3874,-0.0640,1.1333,0
6.282612,-1.6328,-1.2450,8.4898,-0.4029,-0.0440,1.1391,0
6.286067,-1.5897,-1.2833,8.4324,-0.4231,-0.0248,1.1343,0
6.291161,-1.4940,-1.3168,8.3318,-0.4490,0.0043,1.1271,0
6.295506,-1.4078,-1.2737,8.3222,-0.4652,0.0261,1.1263,0
6.298622,-1.4317,-1.2833,8.2456,-0.4794,0.0325,1.1258,0
6.301865,-1.2881,-1.2258,8.1977,-0.4932,0.0477,1.1247,0
6.304859,-1.2115,-1.2402,8.1211,-0.5031,0.0565,1.1197,0
6.308112,-1.1492,-1.2115,8.1259,-0.5247,0.0719,1.1114,0
6.312414,-0.9912,-1.1636,7.9871,-0.5319,0.0815,1.1090,0
6.315682,-0.9816,-1.2115,7.8769,-0.5540,0.0895,1.0968,0
6.318688,-0.8619,-1.1349,7.9057,-0.5710,0.1031,1.0896,0
6.322184,-0.8906,-1.1540,7.8961,-0.5894,0.1079,1.0792,0
6.327023,-0.8045,-1.1013,7.9727,-0.6014,0.1175,1.0696,0
6.330092,-0.6704,-1.0582,7.8913,-0.6161,0.1210,1.0576,0
6.333121,-0.6656,-1.1061,7.9057,-0.6302,0.1290,1.0469,0
6.336084,-0.6129,-1.1157,7.9009,-0.6390,0.1367,1.0381,0
6.340958,-0.5555,-1.0965,7.9104,-0.6600,0.1476,1.0195,0
6.344612,-0.5267,-1.0918,7.8482,-0.6667,0.1553,1.0115,0
6.347690,-0.5363,-1.1109,7.8482,-0.6827,0.1572,1.0008,0
6.350746,-0.5076,-1.1205,7.9248,-0.6909,0.1729,0.9915,0
6.354861,-0.4645,-1.2067,7.9392,-0.6995,0.1756,0.9811,0
6.358999,-0.3687,-1.1636,7.9535,-0.6981,0.1689,0.9707,0
6.362293,-0.3879,-1.0870,8.0732,-0.7021,0.1721,0.9598,0
6.365544,-0.7614,-1.2402,8.2839,-0.7091,0.1679,0.9571,0
6.368659,-0.6847,-1.1923,8.2983,-0.7045,0.1636,0.9553,0
6.371712,-0.3926,-1.1540,8.2887,-0.7045,0.1695,0.9441,0
6.376655,-0.5028,-1.2115,8.3749,-0.7072,0.1676,0.9393,0
6.379859,-0.4597,-1.1875,8.2744,-0.7053,0.1673,0.9329,0
6.382955,-0.2107,-1.0726,8.1642,-0.7045,0.1668,0.9270,0
6.386451,-0.2442,-1.0534,8.1547,-0.7008,0.1567,0.9049,0
6.392162,-0.3208,-1.0247,8.2025,-0.7035,0.1567,0.9017,0
6.395507,-0.1149,-1.0008,8.1786,-0.7011,0.1460,0.8879,0
6.398630,-0.1197,-1.0439,8.1930,-0.7040,0.1479,0.8753,0
6.401860,-0.3160,-1.0630,8.2456,-0.6995,0.1402,0.8697,0
6.404887,-0.1293,-1.0487,8.2935,-0.7003,0.1322,0.8596,0
6.410427,-0.1915,-1.0439,8.3845,-0.6955,0.1271,0.8431,0
6.413760,-0.3017,-1.0534,8.4898,-0.6896,0.1130,0.8388,0
6.417026,-0.3352,-1.0199,8.5281,-0.6843,0.1026,0.8300,0
6.421095,-0.2203,-0.9960,8.5090,-0.6731,0.0829,0.8228,0
6.425307,-0.3831,-1.0918,8.4851,-0.6672,0.0783,0.8127,0
6.428494,-0.3112,-1.0582,8.5377,-0.6576,0.0663,0.8079,0
6.431767,-0.2346,-1.0151,8.5090,-0.6558,0.0597,0.7946,0
6.434921,-0.3352,-1.0247,8.5760,-0.6542,0.0554,0.7922,0
6.437921,-0.4118,-1.0247,8.6287,-0.6392,0.0378,0.7863,0
6.442472,-0.3687,-1.0151,8.6526,-0.6307,0.0413,0.7767,0
6.446194,-0.4118,-1.0008,8.7340,-0.6230,0.0314,0.7682,0
6.449355,-0.4070,-1.0726,8.7963,-0.6174,0.0285,0.7647,0
6.452905,-0.5076,-1.0487,8.8585,-0.6033,0.0192,0.7576,0
6.457467,-0.5267,-1.0391,8.9160,-0.5942,0.0123,0.7472,0
6.461212,-0.5124,-1.0582,8.9783,-0.5841,0.0147,0.7437,0
6.464246,-0.4932,-1.0678,8.9160,-0.5782,0.0136,0.7376,0
6.467519,-0.4788,-1.0487,8.9495,-0.5654,0.0048,0.7352,0
6.470502,-0.5028,-1.0199,8.9256,-0.5577,-0.0024,0.7322,0
6.473967,-0.5315,-1.0295,8.9447,-0.5457,-0.0064,0.7261,0
6.478836,-0.5076,-0.9960,8.9352,-0.5321,-0.0093,0.7216,0
6.482077,-0.4932,-1.0008,8.9783,-0.5177,-0.0141,0.7163,0
6.485385,-0.4788,-1.0630,8.9639,-0.5033,-0.0245,0.7171,0
6.489888,-0.5267,-1.0487,9.0405,-0.4820,-0.0285,0.7152,0
6.493846,-0.4405,-1.1013,9.0118,-0.4738,-0.0386,0.7120,0
6.496905,-0.4693,-1.0487,9.0405,-0.4554,-0.0424,0.7125,0
6.500118,-0.4597,-1.1396,9.0022,-0.4423,-0.0474,0.7080,0
6.503088,-0.5219,-1.0343,9.0261,-0.4261,-0.0552,0.7056,0
6.506323,-0.4980,-1.0534,8.9878,-0.4106,-0.0576,0.7024,0
6.510364,-0.4741,-1.0104,9.0501,-0.3914,-0.0608,0.7000,0
6.513597,-0.5124,-1.0343,9.0118,-0.3813,-0.0658,0.6968,0
6.516696,-0.4836,-0.9816,9.0261,-0.3611,-0.0762,0.6949,0
6.520178,-0.5076,-1.0343,9.0166,-0.3405,-0.0837,0.6923,0
6.525527,-0.5746,-0.9912,9.0884,-0.3232,-0.0815,0.6880,0
6.528799,-0.5938,-0.9337,9.0884,-0.3166,-0.0863,0.6872,0
6.532063,-0.5698,-1.0151,9.1554,-0.2918,-0.0935,0.6827,0
6.535205,-0.6895,-0.9768,9.1650,-0.2827,-0.0949,0.6813,0
6.538317,-0.6225,-1.0008,9.1985,-0.2702,-0.0981,0.6795,0
6.542485,-0.6177,-1.0199,9.1554,-0.2454,-0.0922,0.6803,0
6.546157,-0.6608,-1.0391,9.2608,-0.2340,-0.0922,0.6813,0
6.549320,-0.7087,-1.0534,9.2751,-0.2209,-0.0933,0.6824,0
6.552447,-0.7135,-1.0199,9.2703,-0.2006,-0.0861,0.6771,0
6.557367,-0.7374,-1.0870,9.3278,-0.1825,-0.0850,0.6813,0
6.561250,-0.6943,-1.0534,9.3230,-0.1695,-0.0802,0.6803,0
6.564409,-0.6752,-0.9673,9.3374,-0.1572,-0.0813,0.6744,0
6.567814,-0.7183,-0.9864,9.2416,-0.1388,-0.0789,0.6787,0
6.570978,-0.6847,-0.9864,9.1937,-0.1234,-0.0845,0.6715,0
6.575641,-0.6847,-0.9768,9.3087,-0.1045,-0.0847,0.6723,0
6.580754,-0.7135,-0.9385,9.2703,-0.0917,-0.0877,0.6664,0
6.584261,-0.6991,-0.9529,9.2464,-0.0807,-0.0893,0.6654,0
6.588399,-0.5938,-0.9529,9.2081,-0.0658,-0.0871,0.6622,0
6.592676,-0.6464,-0.9816,9.2320,-0.0530,-0.0850,0.6611,0
6.595824,-0.6991,-0.9481,9.2416,-0.0368,-0.0807,0.6587,0
6.598935,-0.6656,-0.9098,9.2703,-0.0269,-0.0786,0.6582,0
6.602068,-0.6656,-0.9625,9.2129,-0.0133,-0.0863,0.6600,0
6.605152,-0.6560,-1.0056,9.2081,0.0000,-0.0834,0.6563,0
6.610176,-0.7087,-0.9960,9.2464,0.0093,-0.0778,0.6536,0
6.613494,-0.6560,-0.9481,9.1985,0.0293,-0.0775,0.6523,0
6.616633,-0.6512,-0.9720,9.2416,0.0493,-0.0733,0.6510,0
6.620911,-0.6847,-0.9625,9.2464,0.0642,-0.0661,0.6515,0
6.625090,-0.6416,-0.9912,9.1937,0.0781,-0.0666,0.6512,0
6.628335,-0.6943,-1.0104,9.2416,0.0895,-0.0618,0.6502,0
6.631513,-0.6991,-0.8906,9.2177,0.0943,-0.0602,0.6502,0
6.634650,-0.6608,-0.9720,9.2273,0.1098,-0.0632,0.6475,0
6.637595,-0.6991,-0.9481,9.1985,0.1178,-0.0592,0.6459,0
6.641285,-0.7087,-0.8667,9.1171,0.1340,-0.0610,0.6496,0
6.645030,-0.7087,-0.9290,9.1411,0.1399,-0.0554,0.6518,0
6.648270,-0.6895,-0.9050,9.1506,0.1484,-0.0594,0.6443,0
6.651375,-0.6752,-0.9433,9.1219,0.1577,-0.0549,0.6478,0
6.655474,-0.6704,-0.9385,9.1267,0.1676,-0.0554,0.6456,0
6.659658,-0.6704,-0.9290,9.1411,0.1719,-0.0541,0.6414,0
6.662847,-0.6847,-0.8906,9.0453,0.1823,-0.0501,0.6448,0
6.666020,-0.6991,-0.9098,9.0549,0.1884,-0.0485,0.6462,0
6.669178,-0.6608,-0.9146,9.0405,0.1990,-0.0557,0.6419,0
6.672723,-0.7183,-0.9577,8.9830,0.2145,-0.0573,0.6440,0
6.676948,-0.6608,-0.8763,8.9208,0.2180,-0.0541,0.6464,0
6.680388,-0.7278,-0.9050,8.9160,0.2262,-0.0581,0.6475,0
6.683566,-0.6656,-0.9242,8.8873,0.2350,-0.0648,0.6488,0
6.687861,-0.6273,-0.8954,8.8729,0.2486,-0.0568,0.6528,0
6.692108,-0.6369,-0.8619,8.8155,0.2502,-0.0602,0.6518,0
6.695379,-0.7087,-0.8332,8.8202,0.2614,-0.0610,0.6510,0
6.698539,-0.6752,-0.8667,8.8538,0.2657,-0.0576,0.6526,0
6.701635,-0.7470,-0.8236,8.7963,0.2766,-0.0517,0.6566,0
6.704581,-0.7183,-0.8332,8.7724,0.2766,-0.0533,0.6603,0
6.708476,-0.7518,-0.8284,8.7915,0.2968,-0.0408,0.6688,0
6.716834,-0.7614,-0.8332,8.7724,0.3014,-0.0440,0.6678,0
6.721249,-0.8092,-0.8475,8.8442,0.3027,-0.0397,0.6683,0
6.725463,-0.7805,-0.8619,8.9256,0.3136,-0.0365,0.6734,0
6.728708,-0.8284,-0.8236,8.8633,0.3187,-0.0330,0.6752,0
6.732233,-0.8906,-0.8763,8.8394,0.3243,-0.0357,0.6763,0
6.735337,-0.9194,-0.8715,8.8538,0.3248,-0.0354,0.6835,0
6.738258,-0.8763,-0.8332,8.8585,0.3307,-0.0320,0.6853,0
6.742056,-0.8715,-0.8188,8.8729,0.3419,-0.0309,0.6891,0
6.746523,-0.9290,-0.8619,8.8490,0.3379,-0.0336,0.6957,0
6.749656,-0.8811,-0.8667,8.8394,0.3405,-0.0349,0.6997,0
6.752722,-0.9337,-0.8523,8.9304,0.3472,-0.0333,0.7069,0
6.757906,-1.0343,-0.8619,8.9783,0.3419,-0.0360,0.7075,0
6.761494,-1.0008,-0.8380,8.9687,0.3469,-0.0320,0.7109,0
6.764542,-0.9290,-0.8811,8.9352,0.3467,-0.0376,0.7133,0
6.767789,-0.9385,-0.8332,8.9447,0.3515,-0.0365,0.7197,0
6.770773,-1.0056,-0.8428,8.9687,0.3517,-0.0408,0.7237,0
6.774037,-0.9960,-0.8667,8.9591,0.3557,-0.0397,0.7261,0
6.778004,-1.0487,-0.8523,9.0740,0.3624,-0.0357,0.7394,0
6.781272,-1.0870,-0.9002,9.0118,0.3656,-0.0408,0.7429,0
6.784435,-1.1205,-0.9194,9.0501,0.3640,-0.0405,0.7533,0
6.788544,-1.1827,-0.9146,9.0692,0.3749,-0.0349,0.7623,0
6.792607,-1.1636,-0.9433,9.1075,0.3728,-0.0346,0.7727,0
6.795813,-1.2019,-0.9529,9.0884,0.3749,-0.0434,0.7802,0
6.798842,-1.2163,-0.9577,9.1267,0.3762,-0.0325,0.7906,0
6.802429,-1.2450,-0.9050,9.1650,0.3816,-0.0288,0.8029,0
6.805837,-1.2546,-0.9098,9.1315,0.3845,-0.0298,0.8167,0
6.811582,-1.3072,-0.9194,9.1889,0.3933,-0.0357,0.8250,0
6.815693,-1.2498,-0.9577,9.1985,0.3864,-0.0242,0.8359,0
6.819159,-1.2785,-0.9960,9.2656,0.3885,-0.0216,0.8532,0
6.824875,-1.2977,-0.9720,9.2512,0.3869,-0.0253,0.8697,0
6.829112,-1.2594,-0.9529,9.2177,0.3842,-0.0152,0.8775,0
6.832909,-1.3216,-0.9816,9.3134,0.3781,-0.0203,0.8825,0
6.836211,-1.3838,-0.9385,9.3661,0.3765,-0.0179,0.8940,0
6.839522,-1.3551,-0.9960,9.4332,0.3714,-0.0250,0.9030,0
6.845004,-1.4317,-1.0056,9.5002,0.3656,-0.0240,0.9172,0
6.849278,-1.5036,-0.9864,9.5050,0.3568,-0.0266,0.9233,0
6.852672,-1.4557,-0.9960,9.5529,0.3611,-0.0240,0.9345,0
6.856405,-1.5371,-0.9864,9.5337,0.3413,-0.0269,0.9526,0
6.862002,-1.4653,-1.0199,9.5816,0.3376,-0.0328,0.9587,0
6.865537,-1.4748,-0.9720,9.6295,0.3317,-0.0301,0.9638,0
6.868748,-1.5371,-1.0295,9.6534,0.3262,-0.0306,0.9739,0
6.872570,-1.5658,-1.0439,9.7683,0.3123,-0.0330,0.9891,0
6.877400,-1.5993,-0.9816,9.7444,0.3011,-0.0354,0.9936,0
6.881802,-1.5754,-1.0199,9.7588,0.2955,-0.0365,1.0067,0
6.885781,-1.5610,-0.9864,9.7109,0.2832,-0.0381,1.0192,0
6.891024,-1.5610,-1.0104,9.7300,0.2694,-0.0352,1.0323,0
6.895097,-1.5897,-0.9577,9.6486,0.2582,-0.0386,1.0355,0
6.898402,-1.5467,-0.9864,9.6917,0.2502,-0.0349,1.0493,0
6.901626,-1.5467,-0.9864,9.6822,0.2350,-0.0349,1.0493,0
6.905378,-1.4988,-0.9720,9.6917,0.2278,-0.0333,1.0581,0
6.910244,-1.5610,-0.9768,9.7061,0.2100,-0.0344,1.0627,0
6.914106,-1.5897,-1.0104,9.6630,0.1945,-0.0397,1.0651,0
6.917432,-1.5754,-0.9864,9.7061,0.1809,-0.0421,1.0696,0
6.921127,-1.5850,-0.9290,9.7205,0.1644,-0.0365,1.0802,0
6.926028,-1.4988,-0.9864,9.6343,0.1492,-0.0376,1.0826,0
6.929671,-1.5419,-0.9433,9.6391,0.1348,-0.0373,1.0877,0
6.932890,-1.5562,-0.9337,9.6247,0.1236,-0.0368,1.0944,0
6.935982,-1.5802,-0.9146,9.5385,0.1055,-0.0389,1.1002,0
6.941921,-1.5083,-0.9098,9.5385,0.0826,-0.0418,1.1029,0
6.945783,-1.5610,-0.9385,9.5481,0.0645,-0.0394,1.1053,0
6.949189,-1.5802,-0.9194,9.5146,0.0445,-0.0434,1.1056,0
6.952941,-1.5754,-0.9242,9.5337,0.0234,-0.0458,1.1183,0
6.958067,-1.5562,-0.8906,9.5002,0.0043,-0.0496,1.1199,0
6.962099,-1.5371,-0.9098,9.5050,-0.0083,-0.0493,1.1245,0
6.965589,-1.4892,-0.9002,9.5002,-0.0248,-0.0501,1.1303,0
6.968911,-1.5514,-0.9242,9.5337,-0.0370,-0.0416,1.1341,0
6.972032,-1.5514,-0.9002,9.4523,-0.0576,-0.0440,1.1351,0
6.975736,-1.5036,-0.9050,9.3948,-0.0717,-0.0413,1.1402,0
6.979733,-1.5514,-0.9050,9.3996,-0.0805,-0.0453,1.1437,0
6.983441,-1.5467,-0.8954,9.3853,-0.0983,-0.0469,1.1509,0
6.986713,-1.4844,-0.9146,9.4379,-0.1170,-0.0432,1.1599,0
6.992421,-1.5083,-0.8715,9.4332,-0.1250,-0.0392,1.1642,0
6.995957,-1.4892,-0.9194,9.4044,-0.1396,-0.0352,1.1690,0
6.999083,-1.4413,-0.9385,9.4044,-0.1450,-0.0434,1.1740,0
7.002180,-1.4988,-0.9050,9.4092,-0.1583,-0.0445,1.1778,0
7.005858,-1.4509,-0.8715,9.3374,-0.1716,-0.0405,1.1842,0
7.011172,-1.3886,-0.8811,9.3518,-0.1889,-0.0429,1.1890,0
7.015417,-1.3599,-0.9050,9.3470,-0.1990,-0.0429,1.1887,0
7.019686,-1.3647,-0.8523,9.3470,-0.2145,-0.0589,1.1932,0
7.025144,-1.3216,-0.8428,9.2943,-0.2318,-0.0608,1.1938,0
7.029293,-1.3743,-0.8619,9.3518,-0.2385,-0.0719,1.2033,0
7.033131,-1.3120,-0.8475,9.3374,-0.2422,-0.0786,1.2052,0
7.036494,-1.3791,-0.8332,9.4092,-0.2561,-0.0829,1.2017,0
7.039771,-1.3312,-0.9050,9.4523,-0.2707,-0.0919,1.2111,0
7.045433,-1.3216,-0.8475,9.4523,-0.2819,-0.0981,1.2132,0
7.049630,-1.4126,-0.8811,9.4236,-0.2851,-0.1037,1.2188,0
7.053082,-1.3838,-0.8619,9.4954,-0.2918,-0.1143,1.2271,0
7.056840,-1.4365,-0.8763,9.4954,-0.2984,-0.1196,1.2311,0
7.062583,-1.5371,-0.9385,9.5577,-0.3091,-0.1255,1.2380,0
7.066302,-1.4605,-0.8859,9.6391,-0.3112,-0.1223,1.2420,0
7.069533,-1.4653,-1.0247,9.6534,-0.3054,-0.1247,1.2484,0
7.073394,-1.5275,-0.9194,9.6965,-0.3107,-0.1314,1.2609,0
7.078846,-1.4844,-0.9720,9.7205,-0.3070,-0.1370,1.2601,0
7.083131,-1.5467,-0.9816,9.7540,-0.3139,-0.1410,1.2708,0
7.087060,-1.5179,-0.8811,9.7731,-0.3075,-0.1402,1.2825,0
7.092671,-1.4940,-0.9529,9.7588,-0.3083,-0.1450,1.2899,0
7.096554,-1.4653,-0.9481,9.7396,-0.3091,-0.1455,1.2934,0
7.099839,-1.5083,-0.9433,9.7779,-0.3107,-0.1418,1.2969,0
7.103021,-1.4940,-0.9146,9.7683,-0.3078,-0.1503,1.3043,0
7.107447,-1.4317,-0.9194,9.8306,-0.3080,-0.1522,1.3137,0
7.113190,-1.4748,-0.9385,9.7875,-0.3062,-0.1569,1.3123,0
7.116634,-1.4365,-0.9433,9.7779,-0.3094,-0.1609,1.3185,0
7.120923,-1.4557,-0.9337,9.7588,-0.3083,-0.1641,1.3219,0
7.126880,-1.4365,-0.9768,9.7588,-0.3123,-0.1713,1.3270,0
7.130269,-1.4078,-0.9912,9.8258,-0.3094,-0.1684,1.3267,0
7.133941,-1.4126,-0.9625,9.7971,-0.3107,-0.1767,1.3286,0
7.137088,-1.4365,-0.9673,9.8402,-0.3139,-0.1732,1.3339,0
7.140309,-1.4222,-0.9242,9.8210,-0.3182,-0.1751,1.3344,0
7.145006,-1.4174,-0.9720,9.8545,-0.3192,-0.1756,1.3336,0
7.148828,-1.3934,-0.9912,9.8641,-0.3144,-0.1769,1.3355,0
7.152110,-1.4269,-0.9720,9.8450,-0.3150,-0.1743,1.3307,0
7.155812,-1.3551,-0.9625,9.8019,-0.3150,-0.1652,1.3360,0
7.161600,-1.4222,-1.0391,9.7923,-0.3248,-0.1620,1.3371,0
7.164834,-1.4174,-0.9481,9.7923,-0.3195,-0.1609,1.3302,0
7.167951,-1.3168,-1.0056,9.7636,-0.3187,-0.1580,1.3339,0
7.171219,-1.3168,-0.9242,9.7492,-0.3251,-0.1471,1.3283,0
7.177360,-1.2450,-1.0151,9.7779,-0.3211,-0.1431,1.3304,0
7.181134,-1.3216,-0.9864,9.8066,-0.3195,-0.1391,1.3241,0
7.184463,-1.2450,-1.0199,9.7731,-0.3182,-0.1292,1.3249,0
7.189565,-1.1779,-0.9577,9.8114,-0.3182,-0.1244,1.3161,0
7.193849,-1.2306,-0.9673,9.7540,-0.3235,-0.1124,1.3097,0
7.197235,-1.2067,-0.9337,9.7109,-0.3238,-0.1042,1.3059,0
7.201518,-1.1444,-0.9625,9.7300,-0.3192,-0.1021,1.2990,0
7.205011,-1.0678,-0.9577,9.6247,-0.3246,-0.0917,1.2878,0
7.210139,-1.0822,-0.9720,9.6007,-0.3277,-0.0797,1.2878,0
7.214321,-1.0104,-0.9529,9.5577,-0.3238,-0.0743,1.2761,0
7.217702,-1.0008,-0.9337,9.5577,-0.3296,-0.0717,1.2681,0
7.221388,-0.8763,-0.8859,9.4667,-0.3296,-0.0565,1.2601,0
7.227007,-0.8284,-0.8906,9.3805,-0.3320,-0.0592,1.2476,0
7.230232,-0.8045,-0.9337,9.3661,-0.3336,-0.0520,1.2343,0
7.233380,-0.7566,-0.9146,9.3278,-0.3376,-0.0477,1.2303,0
7.236528,-0.6704,-0.8236,9.2512,-0.3339,-0.0474,1.2167,0
7.242135,-0.5507,-0.8140,9.1889,-0.3411,-0.0421,1.1991,0
7.246007,-0.5650,-0.8475,9.0405,-0.3419,-0.0400,1.1834,0
7.249438,-0.4788,-0.8188,9.0022,-0.3499,-0.0400,1.1732,0
7.253213,-0.4741,-0.7661,8.9878,-0.3539,-0.0312,1.1493,0
7.258360,-0.4453,-0.7901,9.0692,-0.3587,-0.0293,1.1389,0
7.262244,-0.4453,-0.8236,9.0692,-0.3565,-0.0176,1.1250,0
7.265716,-0.4501,-0.8380,9.1028,-0.3597,-0.0104,1.1173,0
7.269044,-0.5459,-0.8667,9.1650,-0.3629,-0.0109,1.1074,0
7.272133,-0.4788,-0.8763,9.1794,-0.3635,-0.0040,1.0976,0
7.276921,-0.4884,-0.9290,9.2177,-0.3613,0.0099,1.0800,0
7.281161,-0.4405,-0.8954,9.2464,-0.3597,0.0208,1.0693,0
7.284573,-0.4741,-0.9529,9.2608,-0.3597,0.0312,1.0589,0
7.289863,-0.4405,-0.8763,9.4044,-0.3592,0.0405,1.0411,0
7.293824,-0.4453,-0.9481,9.4523,-0.3624,0.0469,1.0371,0
7.297054,-0.4788,-0.9577,9.5337,-0.3541,0.0544,1.0285,0
7.300580,-0.4214,-0.9433,9.5720,-0.3523,0.0669,1.0147,0
7.305099,-0.4693,-0.9864,9.6438,-0.3517,0.0786,0.9960,0
7.311804,-0.3496,-0.9960,9.6965,-0.3419,0.0887,0.9880,0
7.316042,-0.2921,-0.9290,9.6007,-0.3357,0.0938,0.9747,0
7.319909,-0.2394,-0.9529,9.5529,-0.3230,0.1050,0.9611,0
7.325433,-0.1676,-0.9768,9.4571,-0.3163,0.1130,0.9481,0
7.329381,-0.1580,-0.9529,9.4092,-0.3152,0.1172,0.9414,0
7.332626,-0.0335,-0.9290,9.3422,-0.3070,0.1143,0.9289,0
7.335841,0.0192,-0.9960,9.3518,-0.2987,0.1167,0.9092,0
7.342381,0.0431,-0.9768,9.3613,-0.2843,0.1178,0.8937,0
7.346505,-0.0479,-0.9960,9.4188,-0.2763,0.1106,0.8796,0
7.349957,-0.1484,-1.0391,9.6151,-0.2673,0.1127,0.8703,0
7.354176,-0.3352,-1.0487,10.0700,-0.2483,0.1167,0.8497,0
7.360253,-0.5746,-1.1253,10.3382,-0.2294,0.1162,0.8407,0
7.363948,-0.6560,-1.1684,10.5584,-0.2153,0.1175,0.8314,0
7.367555,-0.8428,-1.2450,10.7835,-0.2102,0.1210,0.8319,0
7.370747,-0.9577,-1.2881,10.9511,-0.1871,0.1314,0.8290,0
7.374221,-0.9768,-1.2641,11.2671,-0.1588,0.1402,0.8282,0
7.380312,-1.1540,-1.3360,11.4299,-0.1412,0.1593,0.8250,0
7.383868,-1.2354,-1.3838,11.5736,-0.1170,0.1700,0.8255,0
7.387469,-1.2402,-1.3791,11.6502,-0.0954,0.1847,0.8223,0
7.392870,-1.1923,-1.3599,11.6598,-0.0786,0.1903,0.8236,0
7.396701,-1.0870,-1.3168,11.5496,-0.0629,0.2014,0.8242,0
7.400049,-0.9864,-1.2785,11.3964,-0.0453,0.2156,0.8154,0
7.404225,-0.8523,-1.2594,11.2097,-0.0365,0.2249,0.8071,0
7.408613,-0.6369,-1.1684,10.9846,-0.0208,0.2340,0.7885,0
7.414249,-0.3783,-1.0918,10.7069,-0.0080,0.2372,0.7765,0
7.417554,-0.2634,-1.0439,10.6446,-0.0032,0.2441,0.7584,0
7.421455,-0.1915,-1.0678,10.3717,0.0125,0.2422,0.7314,0
7.426597,-0.0718,-1.1061,10.2137,0.0147,0.2403,0.7144,0
7.430256,0.0814,-1.0295,10.0173,0.0221,0.2481,0.6984,0
7.433440,0.2251,-0.9577,9.9120,0.0320,0.2457,0.6797,0
7.436711,0.2873,-0.9864,9.7636,0.0368,0.2414,0.6502,0
7.441643,0.3543,-0.9529,9.6869,0.0509,0.2398,0.6281,0
7.445515,0.4788,-0.9242,9.5577,0.0600,0.2321,0.6083,0
7.448835,0.4597,-0.9098,9.4667,0.0624,0.2318,0.5844,0
7.452702,0.5267,-0.9050,9.4619,0.0834,0.2220,0.5444,0
7.457994,0.6177,-0.8284,9.3230,0.0951,0.2137,0.5124,0
7.462003,0.6225,-0.8475,9.3613,0.0965,0.2004,0.4954,0
7.465326,0.6512,-0.8188,9.3518,0.1053,0.1956,0.4684,0
7.468611,0.6273,-0.8523,9.2464,0.1132,0.1841,0.4466,0
7.471778,0.6129,-0.8140,9.3565,0.1151,0.1772,0.4250,0
7.476491,0.5986,-0.8619,9.3470,0.1236,0.1607,0.3890,0
7.480656,0.5602,-0.8236,9.4140,0.1308,0.1356,0.3584,0
7.484044,0.5171,-0.8523,9.4475,0.1351,0.1284,0.3363,0
7.489402,0.4453,-0.8811,9.6582,0.1466,0.1085,0.3075,0
7.493836,0.3304,-0.8475,9.7396,0.1596,0.0930,0.2835,0
7.497210,0.2155,-0.8811,9.7731,0.1668,0.0781,0.2707,0
7.500830,0.1963,-0.8763,9.8210,0.1788,0.0637,0.2545,0
7.504460,0.1772,-0.9194,9.7971,0.1889,0.0466,0.2422,0
7.508115,0.0862,-0.8859,9.8785,0.2062,0.0290,0.2268,0
7.514127,0.0479,-0.9337,9.8545,0.2164,0.0029,0.2116,0
7.517623,0.0287,-0.9146,9.8114,0.2297,-0.0059,0.2092,0
7.521466,-0.0144,-0.9098,9.7827,0.2443,-0.0269,0.1980,0
7.527063,-0.1053,-1.0104,9.8210,0.2545,-0.0448,0.2001,0
7.530280,-0.1149,-0.9768,9.8402,0.2707,-0.0552,0.1935,0
7.533413,-0.2203,-1.0008,9.7875,0.2854,-0.0749,0.1940,0
7.536512,-0.2490,-0.9481,9.7348,0.2947,-0.0877,0.1951,0
7.540266,-0.3352,-0.9098,9.7444,0.3131,-0.0946,0.1993,0
7.545041,-0.3974,-0.9960,9.7779,0.3283,-0.1079,0.2012,0
7.548727,-0.4118,-0.9625,9.7300,0.3331,-0.1135,0.2094,0
7.552369,-0.5219,-0.9290,9.6917,0.3429,-0.1191,0.2206,0
7.557415,-0.5794,-0.9050,9.6343,0.3560,-0.1279,0.2257,0
7.561327,-0.5698,-0.9194,9.5960,0.3624,-0.1332,0.2310,0
7.564543,-0.6847,-0.9481,9.5672,0.3712,-0.1412,0.2337,0
7.567691,-0.7087,-0.9194,9.5241,0.3709,-0.1431,0.2462,0
7.570974,-0.6752,-0.9768,9.5385,0.3765,-0.1447,0.2531,0
7.575972,-0.7901,-0.9337,9.5385,0.3832,-0.1450,0.2683,0
7.579865,-0.7853,-0.9290,9.4284,0.3869,-0.1439,0.2758,0
7.583310,-0.8667,-0.8811,9.4906,0.3914,-0.1415,0.2856,0
7.587191,-0.9912,-0.9433,9.5050,0.3930,-0.1087,0.3198,0
7.596713,-1.0487,-0.9529,9.5002,0.3893,-0.1023,0.3293,0
7.600271,-1.1349,-0.9050,9.5002,0.3877,-0.0890,0.3427,0
7.603580,-1.1061,-0.9337,9.4715,0.3864,-0.0701,0.3560,0
7.607574,-1.1157,-0.8667,9.4284,0.3778,-0.0485,0.3683,0
7.613662,-1.0965,-0.8523,9.3182,0.3781,-0.0203,0.3840,0
7.618374,-1.0534,-0.8859,9.2943,0.3680,0.0019,0.4013,0
7.628112,-0.9625,-0.7901,9.1171,0.3512,0.0522,0.4258,0
7.633023,-0.9529,-0.7470,9.1411,0.3363,0.0727,0.4343,0
7.636858,-0.9242,-0.7518,9.0549,0.3280,0.0807,0.4413,0
7.642004,-0.9098,-0.7374,8.9974,0.3126,0.0986,0.4429,0
7.645854,-0.8332,-0.7374,8.8873,0.3016,0.1140,0.4461,0
7.649231,-0.7805,-0.6608,8.8442,0.2846,0.1212,0.4525,0
7.653346,-0.7278,-0.6321,8.7963,0.2673,0.1380,0.4559,0
7.658439,-0.6608,-0.6752,8.6814,0.2529,0.1511,0.4586,0
7.662363,-0.6943,-0.6464,8.6239,0.2393,0.1553,0.4565,0
7.665736,-0.6656,-0.6273,8.6143,0.2241,0.1732,0.4615,0
7.669001,-0.6464,-0.5650,8.6622,0.2169,0.1833,0.4623,0
7.672101,-0.6704,-0.5986,8.7005,0.1988,0.1958,0.4618,0
7.676839,-0.6416,-0.6081,8.7149,0.1785,0.2134,0.4626,0
7.680899,-0.6464,-0.6321,8.6766,0.1631,0.2310,0.4602,0
7.684224,-0.6752,-0.5986,8.7436,0.1458,0.2473,0.4626,0
7.687967,-0.6464,-0.5411,8.7867,0.1276,0.2755,0.4612,0
7.693670,-0.6895,-0.5171,8.8107,0.1119,0.2910,0.4594,0
7.696916,-0.6273,-0.5890,8.7628,0.0970,0.3091,0.4599,0
7.700035,-0.6800,-0.5746,8.8346,0.0778,0.3315,0.4628,0
7.703846,-0.6560,-0.5650,8.8729,0.0608,0.3523,0.4570,0
7.707847,-0.5986,-0.5746,8.8298,0.0309,0.3765,0.4562,0
7.713584,-0.5363,-0.5171,8.8298,0.0176,0.3922,0.4557,0
7.717097,-0.5076,-0.4980,8.8346,0.0008,0.4069,0.4490,0
7.720913,-0.4932,-0.5124,8.8298,-0.0221,0.4306,0.4426,0
7.725991,-0.3687,-0.4405,8.8346,-0.0298,0.4410,0.4317,0
7.729592,-0.3783,-0.4836,8.7724,-0.0520,0.4498,0.4357,0
7.732781,-0.3543,-0.4549,8.8969,-0.0634,0.4559,0.4301,0
7.735897,-0.3112,-0.4214,8.8442,-0.0930,0.4631,0.4255,0
7.741773,-0.2873,-0.4357,8.8202,-0.1108,0.4644,0.4202,0
7.745678,-0.3208,-0.4070,8.8681,-0.1250,0.4591,0.4154,0
7.749183,-0.2394,-0.3879,8.9112,-0.1410,0.4567,0.4061,0
7.752966,-0.2729,-0.4118,8.9495,-0.1644,0.4567,0.4018,0
7.758089,-0.2682,-0.4980,9.0214,-0.1793,0.4479,0.4010,0
7.762182,-0.3065,-0.4357,9.0692,-0.1873,0.4410,0.3973,0
7.765938,-0.3400,-0.4166,9.1315,-0.1956,0.4354,0.3946,0
7.769158,-0.4022,-0.4884,9.2177,-0.2113,0.4322,0.3944,0
7.772296,-0.3879,-0.4884,9.3565,-0.2214,0.4223,0.3957,0
7.777778,-0.4932,-0.4549,9.5481,-0.2302,0.4151,0.3925,0
7.781562,-0.5507,-0.4310,9.6055,-0.2441,0.4080,0.4000,0
7.784950,-0.5890,-0.4405,9.6726,-0.2526,0.4064,0.4061,0
7.788773,-0.5698,-0.4932,9.7205,-0.2625,0.3954,0.4080,0
7.794399,-0.6177,-0.4549,9.8258,-0.2758,0.3901,0.4125,0
7.797587,-0.6177,-0.4932,9.8354,-0.2739,0.3770,0.4146,0
7.800691,-0.6943,-0.4788,9.8545,-0.2814,0.3701,0.4247,0
7.804063,-0.6800,-0.4741,9.9695,-0.2825,0.3592,0.4354,0
7.809380,-0.6512,-0.4693,10.0269,-0.2928,0.3392,0.4415,0
7.813389,-0.6081,-0.5076,10.0844,-0.3003,0.3195,0.4487,0
7.816894,-0.6895,-0.4597,10.1227,-0.3011,0.3086,0.4562,0
7.820645,-0.6895,-0.4741,10.1849,-0.3131,0.2785,0.4711,0
7.825615,-0.7230,-0.4357,10.2041,-0.3195,0.2619,0.4727,0
7.829320,-0.7518,-0.4453,10.2424,-0.3254,0.2393,0.4759,0
7.832534,-0.7470,-0.3831,10.3190,-0.3277,0.2284,0.4847,0
7.835632,-0.7566,-0.3974,10.2999,-0.3392,0.1982,0.4916,0
7.839933,-0.8284,-0.4118,10.4435,-0.3491,0.1724,0.5025,0
7.845672,-0.8188,-0.4166,10.4818,-0.3584,0.1516,0.5135,0
7.849144,-0.8380,-0.4214,10.4674,-0.3653,0.1220,0.5177,0
7.853679,-0.8906,-0.4070,10.4674,-0.3717,0.0885,0.5340,0
7.859957,-0.9577,-0.4262,10.5824,-0.3784,0.0626,0.5449,0
7.863409,-0.9481,-0.3783,10.5919,-0.3853,0.0434,0.5526,0
7.866823,-0.9816,-0.3591,10.6973,-0.3909,0.0195,0.5590,0
7.870025,-0.9912,-0.3926,10.6686,-0.3880,-0.0043,0.5649,0
7.873313,-0.9960,-0.3735,10.7691,-0.3962,-0.0389,0.5825,0
7.878919,-1.0965,-0.3735,10.8266,-0.3954,-0.0695,0.5915,0
7.882801,-1.1444,-0.4405,10.7739,-0.3954,-0.0831,0.6030,0
7.886203,-1.1157,-0.4262,10.8074,-0.3930,-0.1108,0.6222,0
7.891513,-1.0726,-0.4070,10.8170,-0.3832,-0.1407,0.6360,0
7.895463,-1.1492,-0.4453,10.8457,-0.3778,-0.1609,0.6518,0
7.898963,-1.2163,-0.4022,10.8888,-0.3768,-0.1839,0.6643,0
7.902376,-1.2546,-0.3831,10.9702,-0.3688,-0.2118,0.6734,0
7.905592,-1.2785,-0.4741,10.9415,-0.3661,-0.2374,0.6912,0
7.910701,-1.3264,-0.4214,10.9223,-0.3488,-0.2737,0.7181,0
7.915442,-1.4126,-0.4645,10.9798,-0.3421,-0.3024,0.7360,0
7.920312,-1.4413,-0.4118,11.0181,-0.3259,-0.3336,0.7642,0
7.926551,-1.3503,-0.4214,10.9511,-0.3163,-0.3629,0.7770,0
7.930611,-1.3695,-0.3783,10.9319,-0.3075,-0.3864,0.7858,0
7.933939,-1.3695,-0.3974,10.8936,-0.3064,-0.4040,0.7951,0
7.937496,-1.4700,-0.4166,10.9128,-0.2952,-0.4426,0.8111,0
7.944030,-1.4700,-0.3352,10.9032,-0.2840,-0.4775,0.8290,0
7.948057,-1.5514,-0.3639,10.8936,-0.2699,-0.4959,0.8391,0
7.951670,-1.5706,-0.3352,10.8793,-0.2593,-0.5361,0.8569,0
7.958017,-1.5850,-0.3352,10.8553,-0.2505,-0.5566,0.8676,0
7.962330,-1.5850,-0.3974,10.7883,-0.2361,-0.5830,0.8769,0
7.966121,-1.5993,-0.4262,10.7691,-0.2316,-0.5955,0.8918,0
7.969442,-1.6903,-0.3687,10.7931,-0.2209,-0.6009,0.8969,0
7.972700,-1.7478,-0.3208,10.7404,-0.2054,-0.6273,0.9140,0
7.979091,-1.7238,-0.3448,10.7164,-0.1974,-0.6414,0.9276,0
7.983093,-1.7621,-0.2921,10.6063,-0.1892,-0.6462,0.9321,0
7.986774,-1.7765,-0.2921,10.6734,-0.1844,-0.6622,0.9465,0
7.992299,-1.7717,-0.2921,10.5489,-0.1756,-0.6683,0.9497,0
7.996110,-1.8292,-0.3017,10.5728,-0.1713,-0.6749,0.9563,0
7.999438,-1.8387,-0.2873,10.5345,-0.1716,-0.6840,0.9617,0
8.002685,-1.8627,-0.2586,10.5441,-0.1684,-0.6917,0.9654,0
8.007175,-1.9201,-0.2442,10.5201,-0.1665,-0.7059,0.9723,0
8.013375,-1.9920,-0.3783,10.5393,-0.1628,-0.7123,0.9795,0
8.017331,-2.0686,-0.3112,10.5345,-0.1532,-0.7173,0.9875,0
8.022886,-2.1308,-0.3974,10.6207,-0.1444,-0.7250,1.0014,0
8.027006,-2.2122,-0.4118,10.6303,-0.1335,-0.7285,1.0091,0
8.030375,-2.2122,-0.4884,10.6063,-0.1263,-0.7240,1.0214,0
8.033852,-2.2362,-0.5938,10.6063,-0.1066,-0.7280,1.0283,0
8.037013,-2.3320,-0.6129,10.6398,-0.0946,-0.7250,1.0413,0
8.040296,-2.4038,-0.7087,10.6734,-0.0738,-0.7248,1.0637,0
8.045515,-2.4517,-0.7709,10.6973,-0.0562,-0.7099,1.0848,0
8.049329,-2.5426,-0.8284,10.6973,-0.0402,-0.6971,1.0968,0
8.052690,-2.5905,-0.8906,10.7260,-0.0112,-0.6686,1.1319,0
8.058159,-2.6049,-0.9242,10.8026,0.0040,-0.6403,1.1490,0
8.061975,-2.6145,-0.9912,10.9223,0.0173,-0.6131,1.1711,0
8.065117,-2.6863,-1.1061,10.9654,0.0285,-0.5894,1.1860,0
8.068209,-2.6959,-1.1588,11.0708,0.0501,-0.5486,1.2103,0
8.072101,-2.6576,-1.1732,11.0947,0.0690,-0.5068,1.2337,0
8.076913,-2.6288,-1.2019,11.2097,0.0885,-0.4679,1.2529,0
8.080564,-2.6288,-1.2019,11.2671,0.1034,-0.4437,1.2673,0
8.083840,-2.5283,-1.1971,11.3725,0.1215,-0.3954,1.2891,0
8.089102,-2.4948,-1.2163,11.3629,0.1364,-0.3589,1.3022,0
8.093646,-2.3750,-1.2019,11.3629,0.1519,-0.3246,1.3094,0
8.097107,-2.3032,-1.1636,11.3485,0.1591,-0.2936,1.3161,0
8.100636,-2.2170,-1.1013,11.2336,0.1660,-0.2771,1.3177,0
8.103760,-2.0351,-1.0582,11.1235,0.1657,-0.2547,1.3134,0
8.107305,-1.9680,-1.0343,11.0181,0.1668,-0.2244,1.3099,0
8.112198,-1.8004,-1.0008,10.8362,0.1665,-0.1996,1.2958,0
8.116442,-1.5897,-1.0295,10.7931,0.1660,-0.1780,1.2867,0
8.120235,-1.5323,-1.0343,10.6781,0.1601,-0.1636,1.2665,0
8.125371,-1.4030,-1.0247,10.7260,0.1561,-0.1591,1.2518,0
8.129020,-1.3168,-1.0104,10.6303,0.1607,-0.1559,1.2406,0
8.132136,-1.2498,-0.9673,10.5249,0.1593,-0.1615,1.2241,0
8.135290,-1.2450,-1.0295,10.5201,0.1599,-0.1652,1.2079,0
8.138892,-1.1013,-0.9577,10.5058,0.1607,-0.1825,1.1855,0
8.144819,-1.0487,-0.9098,10.4244,0.1537,-0.1927,1.1588,0
8.148628,-1.0439,-0.8954,10.3813,0.1553,-0.2094,1.1341,0
8.152288,-1.0008,-0.8667,10.3094,0.1431,-0.2260,1.1109,0
8.157292,-0.9481,-0.8092,10.2663,0.1319,-0.2380,1.0810,0
8.161217,-0.9673,-0.8380,10.2472,0.1260,-0.2582,1.0600,0
8.164437,-0.9194,-0.7949,10.2089,0.1162,-0.2817,1.0387,0
8.167566,-0.9050,-0.7709,10.1131,0.1050,-0.2976,1.0118,0
8.170872,-0.8523,-0.7230,10.0461,0.0847,-0.3192,0.9856,0
8.176258,-0.9098,-0.7661,9.9503,0.0624,-0.3571,0.9451,0
8.180203,-0.9673,-0.7374,9.8881,0.0488,-0.3904,0.9209,0
8.183531,-0.9577,-0.7614,9.8785,0.0253,-0.4207,0.8969,0
8.187066,-1.0008,-0.6943,9.8833,0.0005,-0.4618,0.8652,0
8.192163,-1.1588,-0.7230,9.8593,-0.0117,-0.4914,0.8426,0
8.195680,-1.2402,-0.6943,9.8641,-0.0317,-0.5303,0.8271,0
8.198785,-1.3216,-0.7805,9.8450,-0.0432,-0.5468,0.8068,0
8.201977,-1.4222,-0.7566,9.8306,-0.0626,-0.5726,0.7951,0
8.205839,-1.4940,-0.7757,9.8881,-0.0783,-0.6081,0.7773,0
8.210834,-1.6233,-0.7470,9.8689,-0.0973,-0.6238,0.7586,0
8.214670,-1.6664,-0.7614,9.8833,-0.1138,-0.6440,0.7528,0
8.218191,-1.8244,-0.7470,9.9455,-0.1327,-0.6720,0.7376,0
8.224555,-1.9728,-0.8284,9.9790,-0.1543,-0.6861,0.7362,0
8.228191,-2.0686,-0.7614,9.8928,-0.1628,-0.6936,0.7325,0
8.231349,-2.1069,-0.7853,9.9551,-0.1764,-0.7021,0.7309,0
8.234448,-2.2218,-0.7997,9.9647,-0.1919,-0.7083,0.7317,0
8.238593,-2.2745,-0.7614,10.0173,-0.2185,-0.7147,0.7341,0
